acc_x, acc_y, angular_z, stamp, 
0.003958702087402344, -0.019398272037506104, 1.0511421158120097e-11, 1727989831600846972, 
0.016729652881622314, -0.008488178253173828, -8.128332577426945e-12, 1727989831661705159, 
0.007722735404968262, 0.0006007552146911621, -1.433440561037466e-11, 1727989831693047442, 
0.0003800392150878906, 0.015037953853607178, -4.203724682490879e-11, 1727989831719698232, 
-0.0013672709465026855, 0.006023228168487549, -2.5100139925576912e-11, 1727989831749725182, 
0.0004031062126159668, -0.0012091994285583496, -9.79104335002921e-12, 1727989831780759875, 
0.012939512729644775, -0.0012478232383728027, -8.827345112111056e-12, 1727989831810762603, 
-0.021269559860229492, 0.01510322093963623, -8.78950418586809e-12, 1727989831840789731, 
0.0038642287254333496, -0.011694729328155518, -1.6720262086718495e-11, 1727989831871691732, 
0.011003613471984863, 0.013505220413208008, -2.0735623780128625e-11, 1727989831902958850, 
-0.02859210968017578, 0.020743370056152344, -1.5726313386825968e-11, 1727989831933281397, 
0.034284234046936035, 0.006218314170837402, -1.385640260315332e-11, 1727989831960848412, 
0.008841216564178467, -0.019102156162261963, 3.2471887183721952e-12, 1727989831983104448, 
-0.003963351249694824, 0.01482456922531128, -6.45694208831832e-13, 1727989832013004423, 
0.005012154579162598, -0.019539594650268555, -3.682948514525546e-11, 1727989832041278344, 
-0.002242743968963623, -0.010806500911712646, -5.994351839279876e-11, 1727989832070967315, 
-0.0075269341468811035, 0.0070534348487854, -3.692547916104826e-11, 1727989832093111639, 
-0.0003466010093688965, 0.00695955753326416, -1.2755397693806054e-10, 1727989832131009327, 
0.003232121467590332, 0.026653766632080078, -6.682900289752831e-11, 1727989832161244885, 
0.01027601957321167, 0.01569831371307373, -1.0365133407249965e-10, 1727989832191217887, 
0.006593942642211914, 0.003021061420440674, -1.4107289263694176e-10, 1727989832223187111, 
0.008180439472198486, -0.004285871982574463, 1.94330755498197e-06, 1727989832253855666, 
-0.02431201934814453, 0.002927064895629883, -3.458492059368152e-10, 1727989832290120689, 
0.0008742809295654297, -0.0025133490562438965, -2.064242734479732e-10, 1727989832321320539, 
0.0044252872467041016, -0.025805771350860596, -1.8661874431534996e-10, 1727989832351246928, 
0.004406392574310303, -0.007697343826293945, -1.284929094788343e-10, 1727989832383328953, 
-0.011857092380523682, 0.00138932466506958, -1.1182578294585214e-10, 1727989832413936961, 
-0.009883522987365723, 0.015978991985321045, -6.373299940643403e-11, 1727989832441247152, 
0.018707096576690674, 0.023226380348205566, -4.257218491825536e-11, 1727989832471226582, 
-0.0028742551803588867, -9.012222290039062e-05, -1.9716802736342126e-06, 1727989832501457503, 
-0.00802391767501831, -0.030439019203186035, -9.82206466687819e-12, 1727989832531410237, 
0.01736849546432495, 0.0038613080978393555, 5.056534299253964e-12, 1727989832561420228, 
0.0014353394508361816, -0.023119747638702393, -3.625589075902926e-13, 1727989832591319149, 
0.00878065824508667, -0.0015171170234680176, -1.9363315354619043e-12, 1727989832623243590, 
-0.004118025302886963, -0.001534581184387207, -1.9237969667916416e-06, 1727989832654226412, 
-0.009451806545257568, 0.009534001350402832, 1.2728876256690237e-11, 1727989832681663565, 
-0.014669656753540039, -0.02619403600692749, 3.992846386857208e-12, 1727989832703209221, 
-0.003765702247619629, -0.004395842552185059, -2.3909352846601907e-11, 1727989832734901238, 
-0.0161094069480896, -0.005962789058685303, -9.356881895389492e-11, 1727989832761488519, 
0.012696385383605957, 0.012072205543518066, -6.600784877312087e-11, 1727989832783210080, 
0.009245455265045166, -0.01833951473236084, -1.7515687779619445e-10, 1727989832814830963, 
-0.012038052082061768, 0.006973922252655029, -2.350035650047373e-10, 1727989832841551797, 
-0.0029438138008117676, -0.01098024845123291, -2.882772966104234e-10, 1727989832871579057, 
-0.002619147300720215, 0.0017156004905700684, -2.1703447540242384e-10, 1727989832895046527, 
-0.03115224838256836, 0.01967555284500122, -5.951493754365984e-10, 1727989832931566769, 
-0.03254854679107666, -0.0018791556358337402, -4.2878378902926547e-10, 1727989832961571469, 
-0.019701242446899414, 0.008752644062042236, -4.825019439661871e-10, 1727989832991591198, 
-0.01389378309249878, -0.012930154800415039, 1.8837835233269053e-06, 1727989833023225629, 
-0.0032169222831726074, 0.004828453063964844, -3.1378339644020034e-10, 1727989833054896296, 
0.013079285621643066, -0.01501554250717163, -2.970501059191344e-10, 1727989833081653542, 
-0.01723843812942505, 0.004779458045959473, -1.5558589006017392e-10, 1727989833103005101, 
-0.024037957191467285, 0.017425060272216797, -2.8985614905763623e-10, 1727989833134944492, 
-0.014882326126098633, 0.006455123424530029, -3.1449690666904127e-10, 1727989833161782969, 
0.01961374282836914, -0.022395312786102295, -1.9964330958638755e-10, 1727989833191755718, 
0.016011953353881836, 0.01695835590362549, -6.869817919175938e-11, 1727989833215543247, 
0.01610010862350464, -0.013804852962493896, 1.6443322909240116e-06, 1727989833251793079, 
0.014515578746795654, 0.025548934936523438, 1.98531344786157e-06, 1727989833281819174, 
-0.007187247276306152, 0.01796025037765503, 1.9855333359315183e-06, 1727989833311843776, 
0.01427149772644043, 0.0014830231666564941, 5.2533329207069e-10, 1727989833343241067, 
-0.03286778926849365, -0.025655090808868408, 5.340331398518418e-10, 1727989833374882269, 
-0.009625434875488281, 0.008619189262390137, 4.811311430364605e-10, 1727989833401991042, 
0.013242721557617188, -0.0004995465278625488, 3.42437493015432e-10, 1727989833432058644, 
-0.0029063820838928223, -0.011241495609283447, 1.6752692710925717e-10, 1727989833454907713, 
-0.005166351795196533, 0.00306016206741333, 2.9292443338933523e-10, 1727989833491947958, 
-0.026644408702850342, -0.027496516704559326, 1.720286304172487e-10, 1727989833521926884, 
-0.004771590232849121, 0.02459883689880371, 1.966916424508473e-06, 1727989833552233531, 
0.01856774091720581, -0.00243300199508667, 2.378339759186573e-10, 1727989833582837807, 
-0.001170814037322998, 0.017441928386688232, 1.9197996891645762e-10, 1727989833615078384, 
0.007701754570007324, 0.017463982105255127, 1.8439449763350935e-10, 1727989833642061691, 
0.004103541374206543, -0.022094011306762695, 1.5750538312281289e-10, 1727989833672033552, 
0.013228058815002441, -0.004193484783172607, 1.680881383355999e-10, 1727989833702145074, 
0.011407852172851562, -0.018631458282470703, 1.8229249947002083e-10, 1727989833731348159, 
-0.0029410123825073242, -0.03111511468887329, 1.5235458855867004e-10, 1727989833762301978, 
-0.010187089443206787, 0.003211677074432373, 1.0713546678196481e-10, 1727989833791168286, 
-0.003120124340057373, 0.005035579204559326, 1.876761446182638e-06, 1727989833822928779, 
0.018320679664611816, 0.008788228034973145, 1.8965335447663252e-06, 1727989833854357647, 
-0.003578484058380127, 0.01606452465057373, 1.048846249889309e-11, 1727989833881305708, 
0.0034137368202209473, -4.6253204345703125e-05, 8.262640592159883e-14, 1727989833912246762, 
0.030276238918304443, 0.008804380893707275, -8.03598529906675e-12, 1727989833942233952, 
0.006928443908691406, -0.029173672199249268, -1.7170243795755393e-11, 1727989833972695916, 
-0.020102381706237793, 0.0138968825340271, -2.4359195241101565e-11, 1727989834002277251, 
-0.013090729713439941, -0.007769167423248291, -3.954805240278988e-11, 1727989834032271683, 
-0.022117674350738525, -0.0006714463233947754, -6.9921374923165e-11, 1727989834062923507, 
-0.025603294372558594, 0.01724553108215332, -5.997462727745086e-11, 1727989834095042260, 
-0.007449746131896973, 0.006383180618286133, -5.380574373387883e-11, 1727989834132343635, 
0.013904988765716553, -0.0063190460205078125, -6.379304566918981e-11, 1727989834162675281, 
0.013624310493469238, 0.008048415184020996, -6.818922500680086e-11, 1727989834192369027, 
0.0045737624168396, 0.009872496128082275, -9.039107600621147e-11, 1727989834223160801, 
0.024392664432525635, 0.011657536029815674, -1.0861188808843263e-10, 1727989834254934398, 
-0.01543569564819336, -0.008194446563720703, -1.6231422553136892e-10, 1727989834282632458, 
-0.021007180213928223, 0.013439774513244629, -1.4520621805895338e-10, 1727989834312650619, 
0.00037539005279541016, -0.01694732904434204, -1.6855477931277708e-10, 1727989834342567578, 
-0.03396189212799072, 0.01735854148864746, -1.0355493539246709e-10, 1727989834372535307, 
0.036264002323150635, -0.016684770584106445, -8.076772774230717e-11, 1727989834402596613, 
0.015691041946411133, 0.0015830397605895996, 0.0001620897515688411, 1727989834442678685, 
0.1315251588821411, 0.003627002239227295, 0.004869967735494315, 1727989834472652811, 
1.4565197229385376, 0.5398247241973877, 0.11367431226978891, 1727989834501737003, 
0.8183755874633789, 0.13605022430419922, 0.18923903904205333, 1727989834531715171, 
1.046555995941162, -0.356533944606781, 0.1986270951210443, 1727989834562995112, 
1.0660337209701538, -0.0011447668075561523, 0.2802910979481462, 1727989834592745972, 
0.3656654953956604, 0.43319928646087646, 0.2967011647043845, 1727989834623495599, 
0.9979217052459717, 0.44717007875442505, 0.3247369639782665, 1727989834655153188, 
-0.12760871648788452, 0.20708519220352173, 0.5231156087188331, 1727989834772877914, 
-0.09679955244064331, -0.6588685512542725, 0.48956862724165795, 1727989834802862923, 
0.513731062412262, 0.27687859535217285, 0.48805672703793607, 1727989834832988132, 
-0.4868201017379761, 0.7930142879486084, 0.46934139862415275, 1727989834862879519, 
-0.48851025104522705, -0.632758617401123, 0.47065482237985024, 1727989834895395849, 
0.4961259961128235, 0.1991632580757141, 0.5745143496387466, 1727989834922964228, 
-0.08876526355743408, 0.7741535305976868, 0.4961147236283117, 1727989834952935501, 
0.17928844690322876, -0.40393638610839844, 0.5032613166613984, 1727989834983004713, 
0.17099517583847046, 0.4883728623390198, 0.5042124365547472, 1727989835003345617, 
-0.05737215280532837, 0.5942674875259399, 0.5075293610804177, 1727989835042992366, 
-0.07192867994308472, -0.1158825159072876, 0.5326285268328108, 1727989835073030572, 
-0.13960707187652588, -0.192604660987854, 0.5074943980785839, 1727989835103115286, 
0.05682241916656494, 0.4310802221298218, 0.4539337647241366, 1727989835135513496, 
0.06825745105743408, 0.04706001281738281, 0.5818490243207715, 1727989835163330737, 
-0.1271989941596985, -0.06233835220336914, 0.5349875836505884, 1727989835193086491, 
0.6365430355072021, 0.02296370267868042, 0.5378879619491905, 1727989835223116109, 
-0.053417742252349854, 0.1817600131034851, 0.5165633792212622, 1727989835253242717, 
-0.6046938896179199, 0.1257513165473938, 0.49897575580340137, 1727989835283237653, 
0.3006435036659241, 0.20509392023086548, 0.5173984766969039, 1727989835313157350, 
0.28062742948532104, 0.040240347385406494, 0.5226751076914041, 1727989835343410703, 
-0.03152430057525635, -0.10845941305160522, 0.49446181037902814, 1727989835373989995, 
0.14020001888275146, 0.13732898235321045, 0.534539377861462, 1727989835402386460, 
-0.019627511501312256, 0.2596726417541504, 0.4733826659554966, 1727989835443403412, 
0.22148126363754272, 0.45241135358810425, 0.49991106663543994, 1727989835473439955, 
-0.16192626953125, 0.0034235715866088867, 0.5083173790889824, 1727989835503396258, 
-0.04222822189331055, -0.1881786584854126, 0.4840499849326274, 1727989835535088209, 
-0.023760735988616943, 0.3586118221282959, 0.49411410057942423, 1727989835566009922, 
-0.33497971296310425, 0.037734150886535645, 0.5227735289701124, 1727989835593457641, 
0.3271346092224121, -0.33443504571914673, 0.4787946718242836, 1727989835623542564, 
-0.09902942180633545, 0.6008228063583374, 0.4583242602296915, 1727989835645823965, 
-0.1737866997718811, 0.17628341913223267, 0.5378276500484354, 1727989835683497365, 
-0.3338633179664612, -0.6397050619125366, 0.5122664966212608, 1727989835713495609, 
-0.2629820704460144, 0.21583229303359985, 0.5127388461786457, 1727989835743493209, 
0.03916895389556885, 0.4352858066558838, 0.4749136375820301, 1727989835775404395, 
-0.5097871422767639, -0.6529051661491394, 0.4972565270463094, 1727989835806422463, 
0.4948824644088745, 0.5404919981956482, 0.5760265495603825, 1727989835833622587, 
0.023719847202301025, 0.6108952760696411, 0.48956759132803157, 1727989835863648320, 
-0.20228153467178345, -0.757091760635376, 0.49710706845221675, 1727989835893618229, 
-0.01988661289215088, 0.2351362705230713, 0.5038312725197115, 1727989835923893715, 
-0.35857540369033813, 0.5218309760093689, 0.541465906436623, 1727989835952732628, 
-0.1909993290901184, -0.37247025966644287, 0.4847255713539095, 1727989835983687846, 
-0.034370601177215576, 0.060108184814453125, 0.4493681302597066, 1727989836015303379, 
-0.04711031913757324, 0.33653688430786133, 0.4912140814788166, 1727989836046148854, 
0.16760754585266113, -0.09861469268798828, 0.5618353365895921, 1727989836073877039, 
-0.27455228567123413, 0.04888194799423218, 0.5035192427677503, 1727989836103930567, 
0.002303600311279297, 0.11857831478118896, 0.5066681229242412, 1727989836133835812, 
-0.17042940855026245, 0.21280544996261597, 0.48787487791211576, 1727989836163804605, 
-0.2934305667877197, -0.21137374639511108, 0.4979059543556594, 1727989836193747231, 
0.014356613159179688, 0.11051589250564575, 0.49338739519448666, 1727989836224545770, 
0.07603651285171509, 0.16543614864349365, 0.5136926506608331, 1727989836255019581, 
0.13057714700698853, -0.13178950548171997, 0.4792949482149227, 1727989836287355599, 
-0.12288457155227661, -0.08727747201919556, 0.5446450344807181, 1727989836314981693, 
-0.03250032663345337, 0.43193143606185913, 0.5133173774659212, 1727989836344551334, 
-0.07489997148513794, -0.2528480291366577, 0.4954124127723953, 1727989836374547035, 
0.2614263892173767, -0.11713284254074097, 0.48092016600149795, 1727989836404509536, 
0.01562976837158203, 0.6944177150726318, 0.5011639686650665, 1727989836434828761, 
-0.4366292953491211, -0.03278583288192749, 0.4854386815844512, 1727989836464583399, 
-0.23163866996765137, -0.6585566401481628, 0.48688932284715514, 1727989836495218916, 
0.557865560054779, 0.802771806716919, 0.47327037457902765, 1727989836527176965, 
-0.56732177734375, 0.06781446933746338, 0.5222537277536929, 1727989836554643411, 
-0.1451420783996582, -0.6918057799339294, 0.507543844864244, 1727989836584562134, 
0.09310781955718994, 0.5663715600967407, 0.4981376042704547, 1727989836614678881, 
-0.2924274206161499, 0.11620420217514038, 0.5055220199461344, 1727989836644638564, 
-0.05996054410934448, -0.6035133004188538, 0.5153881127247111, 1727989836674632165, 
-0.2709009051322937, 0.9283584356307983, 0.4899880808414657, 1727989836704115147, 
-0.1530703902244568, 0.06081962585449219, 0.486792705660634, 1727989836735092171, 
-0.5933138132095337, -0.8305665850639343, 0.49098003994584416, 1727989836767571255, 
0.18596094846725464, -0.3045639991760254, 0.5592785885588053, 1727989836804510894, 
-0.34663450717926025, 0.6275447607040405, 0.5375121915786447, 1727989836834202108, 
-0.10036599636077881, 0.23711329698562622, 0.5045819055277192, 1727989836864306979, 
0.018775224685668945, -0.513195812702179, 0.47482360060096884, 1727989836895458969, 
0.3527069687843323, 0.14763480424880981, 0.4696676285411469, 1727989836927095320, 
0.12192445993423462, -0.3582684397697449, 0.5070083848186551, 1727989836984318957, 
0.052991628646850586, 0.29210758209228516, 0.4589159437243395, 1727989837006618958, 
-0.4025231599807739, -0.1937187910079956, 0.4960571492293743, 1727989837074409523, 
0.17311131954193115, 0.13253730535507202, 0.5103166371913127, 1727989837104573001, 
-0.03629660606384277, 0.474963903427124, 0.5027159035993759, 1727989837135474883, 
0.5397753119468689, -0.42942672967910767, 0.4770330021083964, 1727989837167095355, 
-0.0913044810295105, -0.2539368271827698, 0.5295558821839083, 1727989837194808685, 
0.10040950775146484, 0.09626609086990356, 0.4989044179455371, 1727989837224491026, 
-0.10455119609832764, -0.28264719247817993, 0.4358657233975832, 1727989837247509246, 
0.056307971477508545, -0.15250158309936523, 0.5788849515498844, 1727989837274577472, 
0.2843877077102661, 0.5321068167686462, 0.5046975671360735, 1727989837304810609, 
-0.06652063131332397, -0.1570417284965515, 0.49986534878852495, 1727989837334572430, 
-0.11966222524642944, -0.31624460220336914, 0.49264475853857487, 1727989837364542732, 
0.5841074585914612, 0.3962414264678955, 0.5042626050353972, 1727989837394601095, 
-0.460888147354126, 0.00955885648727417, 0.5082221133650919, 1727989837423840205, 
-0.18949681520462036, -0.5598011612892151, 0.4515668542178468, 1727989837455132911, 
0.08946496248245239, 0.44756144285202026, 0.43581182277166125, 1727989837487167051, 
0.49149149656295776, 1.1234469413757324, 0.5277986563205792, 1727989837524816326, 
0.2356850504875183, -0.6464404463768005, 0.537413825406132, 1727989837553805276, 
-0.09051483869552612, -0.032354891300201416, 0.5040924090213255, 1727989837583786699, 
-0.2218649983406067, 0.6850538849830627, 0.47219408647104666, 1727989837615368529, 
0.016071617603302002, -0.30999529361724854, 0.4841992424072099, 1727989837647301672, 
-0.21776294708251953, -0.2982295751571655, 0.545557568166027, 1727989837684882870, 
-0.031284868717193604, -0.34315335750579834, 0.5221297397440241, 1727989837714903211, 
-0.42036372423171997, 0.8177981376647949, 0.48873273415307045, 1727989837745119948, 
-0.12522000074386597, -0.18427085876464844, 0.49686927276849213, 1727989837775030299, 
0.12174826860427856, -0.4224582314491272, 0.4662592918966887, 1727989837807585847, 
0.12588030099868774, 0.5230952501296997, 0.5532671116502367, 1727989837835226939, 
-0.20186501741409302, 0.09044075012207031, 0.5242697655456072, 1727989837864940317, 
-0.4517099857330322, -0.2140798568725586, 0.4892955626246479, 1727989837895150278, 
-0.09271097183227539, 0.3185542821884155, 0.49080811212269104, 1727989837925003028, 
0.19023287296295166, 0.06410545110702515, 0.49620236787954625, 1727989837955015742, 
-0.3780354857444763, -0.1270608901977539, 0.5054167186432216, 1727989837985059559, 
0.5597869753837585, 0.4381445050239563, 0.5228236407323834, 1727989838015084262, 
0.18695807456970215, 0.4613155722618103, 0.4537074952415423, 1727989838047685560, 
-0.18919605016708374, -0.000764012336730957, 0.532630868000881, 1727989838075186261, 
0.012284576892852783, -0.4201706647872925, 0.5156718494597581, 1727989838105121986, 
-0.149436354637146, 0.5044310092926025, 0.510994690579938, 1727989838135110150, 
0.05786246061325073, 0.3101586103439331, 0.511927098654066, 1727989838165138370, 
-0.29370635747909546, -0.45554566383361816, 0.49707820198559083, 1727989838195190183, 
0.2525273561477661, 0.0670047402381897, 0.4809891300042876, 1727989838225189735, 
0.04387986660003662, 0.5544934272766113, 0.49233291091700015, 1727989838255380680, 
-0.6914052963256836, -0.39194542169570923, 0.44702605548238805, 1727989838287180215, 
-0.21809667348861694, 0.12730079889297485, 0.4890012511794027, 1727989838317831469, 
-0.007748246192932129, 0.22447222471237183, 0.5497337474597349, 1727989838355293740, 
-0.673500120639801, 0.18237757682800293, 0.510313385509385, 1727989838385457965, 
0.17235863208770752, -0.2658226490020752, 0.5153597777398841, 1727989838415451979, 
0.18681329488754272, 0.7343463897705078, 0.45154555534871305, 1727989838447226147, 
0.41346240043640137, 0.06417936086654663, 0.4650610439184271, 1727989838478129640, 
-0.18057656288146973, -0.7254765033721924, 0.5596382156025934, 1727989838505470475, 
0.26572030782699585, 0.6185895204544067, 0.5045607909924178, 1727989838535440339, 
-0.1818334460258484, -0.38242560625076294, 0.48388134322953597, 1727989838556891975, 
-0.01555711030960083, -0.10389208793640137, 0.5759842732487102, 1727989838584511860, 
0.17560666799545288, 0.191209614276886, 0.4859956080262161, 1727989838625658159, 
0.17642879486083984, 0.4798831343650818, 0.5317502498658679, 1727989838655607731, 
-0.03924417495727539, -0.35553622245788574, 0.49168822211664054, 1727989838687509250, 
0.1867450475692749, -0.03020685911178589, 0.5216898436781836, 1727989838718387320, 
0.020978450775146484, 0.3449196219444275, 0.570233661444363, 1727989838745623229, 
-0.4988131523132324, -0.17817366123199463, 0.4466402757688576, 1727989838767180927, 
0.3098216652870178, 0.15874743461608887, 0.4829006895451854, 1727989838798508539, 
-0.11525768041610718, 0.03795140981674194, 0.5916625517178871, 1727989838824706576, 
-0.25375670194625854, -0.09851455688476562, 0.4921459156655279, 1727989838855801336, 
-0.24612176418304443, 0.5283262133598328, 0.45462954060340327, 1727989838878796296, 
0.1496199369430542, 0.49326950311660767, 0.5445171753000453, 1727989838915776791, 
-0.04265958070755005, 0.16133242845535278, 0.48848104075381615, 1727989838945691934, 
-0.1479339599609375, -0.5801102519035339, 0.5141018593101091, 1727989838975685925, 
0.13202524185180664, 0.6986094117164612, 0.4801437180700012, 1727989839007743317, 
-0.17399102449417114, 0.21924960613250732, 0.4681894746895899, 1727989839038279445, 
-0.14563053846359253, -0.9455783367156982, 0.521065986454406, 1727989839065807434, 
0.3165243864059448, 0.6135719418525696, 0.5009653984315525, 1727989839095750268, 
0.06388944387435913, 0.5034921765327454, 0.5218636225226394, 1727989839125790586, 
-0.785446047782898, -0.9108709692955017, 0.5065835538167521, 1727989839155875589, 
0.1584128737449646, 0.603051483631134, 0.5010627187285449, 1727989839185906397, 
0.20526200532913208, 0.541299045085907, 0.48409822196523083, 1727989839215869813, 
-0.3573782444000244, -1.0450081825256348, 0.44872067860592635, 1727989839247469651, 
0.20769059658050537, 0.5898688435554504, 0.4707569881627225, 1727989839279149728, 
-0.1364603042602539, 0.8198712468147278, 0.5737444366198935, 1727989839305965621, 
-0.21055269241333008, -0.8637824058532715, 0.4868157999658396, 1727989839336143721, 
-0.05278855562210083, -0.13452541828155518, 0.5071054766454086, 1727989839365973716, 
0.029616832733154297, 0.9381208419799805, 0.5048839679362452, 1727989839396208039, 
0.018901288509368896, -0.39503979682922363, 0.5145182810078371, 1727989839426183250, 
-0.21014970541000366, -0.284762442111969, 0.5419009935572383, 1727989839456030525, 
-0.15367794036865234, 0.7503525018692017, 0.47847537918430105, 1727989839487688688, 
0.015104234218597412, -0.19151711463928223, 0.4613855889203823, 1727989839519632082, 
-0.5510100722312927, -0.31374454498291016, 0.5589522141443782, 1727989839546122670, 
-0.22221899032592773, 0.6324343681335449, 0.5096345446631068, 1727989839576096222, 
0.05467873811721802, -0.4799405336380005, 0.5417608731955399, 1727989839606108549, 
-0.22052711248397827, -0.2871502637863159, 0.5031231039588608, 1727989839636196280, 
0.03172796964645386, 0.2837967276573181, 0.5079033049942568, 1727989839666170151, 
-0.09883314371109009, 0.23749077320098877, 0.5162340564371908, 1727989839696180548, 
-0.023135900497436523, -0.3065512180328369, 0.48236775263778414, 1727989839727536329, 
-0.115409255027771, -0.27535074949264526, 0.4901606883954714, 1727989839759230068, 
-1.1018915176391602, 0.17327213287353516, 0.531415722979032, 1727989839786321703, 
-1.4885503053665161, -0.09554994106292725, 0.3540845136642721, 1727989839816272732, 
-0.9796691536903381, -0.3335099220275879, 0.3034128895927114, 1727989839846409041, 
-0.41348958015441895, 0.20339155197143555, 0.25647301748302315, 1727989839876337715, 
-0.5849766731262207, 0.00852358341217041, 0.17504204043068364, 1727989839906380262, 
-0.6168966889381409, -0.34408533573150635, 0.1250898044702451, 1727989839936395425, 
-1.151373028755188, -0.1711689829826355, 0.08672463384869251, 1727989839966734335, 
-0.45501255989074707, 0.05972367525100708, 0.034170826852953425, 1727989839998722638, 
0.03842204809188843, 0.009757757186889648, -0.035684103261839545, 1727989840026543738, 
0.09799814224243164, -0.16589248180389404, -0.02598582519213701, 1727989840056761313, 
1.1551417112350464, 0.3698084354400635, 0.03375389287077123, 1727989840086463445, 
1.198163390159607, 0.1523990035057068, 0.19080194467110353, 1727989840116622877, 
1.3375707864761353, 0.11025935411453247, 0.2608073155912422, 1727989840145465287, 
0.2553824186325073, 0.015973985195159912, 0.2806193686203194, 1727989840175515044, 
0.5123948454856873, -0.11576676368713379, 0.2900508638193445, 1727989840207852622, 
0.3789122700691223, 0.12918198108673096, 0.3211045657957405, 1727989840239313510, 
0.9632406234741211, 0.4499569535255432, 0.42324734820704707, 1727989840266637955, 
0.929048478603363, 0.020889580249786377, 0.48495089046659934, 1727989840296604853, 
0.26528114080429077, -0.06098657846450806, 0.5030113877048605, 1727989840326634290, 
-0.05024689435958862, 0.6188784837722778, 0.5700596051546677, 1727989840355737113, 
-0.030825257301330566, 0.37250614166259766, 0.5376898566157815, 1727989840386876527, 
-0.5515151619911194, -0.7722644209861755, 0.5730127719029845, 1727989840415717618, 
0.29291051626205444, 0.26974165439605713, 0.5256281899517328, 1727989840447423762, 
-0.26179975271224976, 0.9077179431915283, 0.4813855468173285, 1727989840479858561, 
-0.17617785930633545, -0.42172014713287354, 0.5394351028104349, 1727989840507083561, 
0.053118228912353516, -0.38091808557510376, 0.4777944144419102, 1727989840536802595, 
0.34369999170303345, 0.6123595237731934, 0.4531677512703298, 1727989840566812102, 
0.028303682804107666, 0.1536514163017273, 0.46886792651677467, 1727989840597224643, 
0.38846975564956665, -0.5105766654014587, 0.5197220437595133, 1727989840627036523, 
0.20856881141662598, 0.19313019514083862, 0.49217531897300176, 1727989840656870177, 
-0.32087671756744385, 0.5422211289405823, 0.5027132456606347, 1727989840687455544, 
-0.2675304412841797, -0.2938011884689331, 0.4869152847722821, 1727989840719638058, 
-0.2473044991493225, -0.02251458168029785, 0.5841446555086333, 1727989840746982886, 
0.03509098291397095, 0.2819902300834656, 0.5339386671200542, 1727989840776909592, 
-0.11029261350631714, 0.20381909608840942, 0.49144511700661647, 1727989840807381278, 
0.031133174896240234, -0.08816695213317871, 0.49314025968256686, 1727989840837021524, 
0.3463345170021057, 0.1352444291114807, 0.5172899999318487, 1727989840867015188, 
-0.3738551735877991, 0.18369317054748535, 0.5220313462469539, 1727989840897029352, 
-0.12427520751953125, -0.20756226778030396, 0.4825615206950054, 1727989840928131790, 
-0.05740523338317871, 0.2687438130378723, 0.4620818432174942, 1727989840959301467, 
-0.24991363286972046, 0.2853941321372986, 0.5231938764399402, 1727989840987166176, 
0.1147196888923645, -0.5189027190208435, 0.5075804411698598, 1727989841017188705, 
0.07434552907943726, 0.5506079792976379, 0.5173278583821104, 1727989841047148945, 
-0.17555230855941772, 0.38451993465423584, 0.4990266828157159, 1727989841077163889, 
-0.3000645637512207, -0.7339708805084229, 0.4768760380855876, 1727989841107196450, 
0.4115942120552063, 0.35418200492858887, 0.4729437498374601, 1727989841137191010, 
-0.07720351219177246, 0.7908422350883484, 0.507917969982442, 1727989841166697751, 
-0.3642948865890503, -0.7044605612754822, 0.44501194250489395, 1727989841199350731, 
0.1631883978843689, 0.19741058349609375, 0.5006971732199667, 1727989841229264901, 
0.13519132137298584, 0.7120035290718079, 0.5464095600097225, 1727989841257443144, 
-0.6182622313499451, -0.6472487449645996, 0.5078600006870363, 1727989841287314847, 
0.38391947746276855, 0.7857005000114441, 0.4765491182062574, 1727989841309744861, 
-0.012495219707489014, 0.8851235508918762, 0.543334909807264, 1727989841347292970, 
-0.32724595069885254, -0.6652776598930359, 0.4861633371279119, 1727989841377383197, 
0.008921623229980469, -0.2982179522514343, 0.5005954891020428, 1727989841407552233, 
0.17512905597686768, 0.8694047927856445, 0.4775283651941326, 1727989841438725397, 
-0.0767514705657959, 0.6655554175376892, 0.4943100117936603, 1727989841470270632, 
-0.148301899433136, 0.43306654691696167, 0.5490059353213779, 1727989841507454551, 
-0.23597687482833862, -0.603992223739624, 0.4819945805528738, 1727989841537504831, 
0.22674018144607544, 0.15836173295974731, 0.4945482676371044, 1727989841568089805, 
-0.2895241975784302, 0.5300909876823425, 0.4814287519255706, 1727989841599333407, 
-0.07609832286834717, -0.14206016063690186, 0.5128246855888149, 1727989841629985742, 
-0.12039589881896973, 0.1365283727645874, 0.5771014087440072, 1727989841657622726, 
0.021706044673919678, 0.22054094076156616, 0.49346422696469266, 1727989841687606953, 
-0.007945597171783447, -0.16953790187835693, 0.5128526124919917, 1727989841716584254, 
0.10324645042419434, 0.3154849410057068, 0.4911876781081294, 1727989841746652805, 
-0.42499762773513794, 0.24328267574310303, 0.49321419159271734, 1727989841777829708, 
0.0069122314453125, -0.29408425092697144, 0.5377736014235137, 1727989841807620910, 
-0.14104318618774414, 0.24033033847808838, 0.47010513377420843, 1727989841839549570, 
0.3042846918106079, 0.3218504786491394, 0.49456698550780237, 1727989841870418551, 
-0.5814046859741211, -0.2643720507621765, 0.5380761627375337, 1727989841897796781, 
0.07848185300827026, -0.08997786045074463, 0.5163627510260327, 1727989841926697118, 
0.23824542760849, 0.6969271302223206, 0.5032141611859822, 1727989841958124543, 
-0.41992461681365967, -0.12311464548110962, 0.5004496007070279, 1727989841987806689, 
-0.15910035371780396, -0.541615903377533, 0.4844527924157146, 1727989842017838123, 
0.17816388607025146, 0.9797794818878174, 0.479569294793183, 1727989842048298877, 
-0.6187009215354919, -0.0923120379447937, 0.45767573464242156, 1727989842079977106, 
-0.056455016136169434, -0.5657326579093933, 0.4802576478558227, 1727989842111276677, 
0.539415717124939, 0.6726139187812805, 0.5672124348924209, 1727989842137981525, 
-0.5762511491775513, 0.16356855630874634, 0.5038694729193164, 1727989842167956131, 
0.4475906491279602, 0.4424317479133606, 0.42971526279986777, 1727989842191529463, 
-0.008333265781402588, 0.894047737121582, 0.5576664961312772, 1727989842227965659, 
0.324155330657959, 0.29595619440078735, 0.5186597509188958, 1727989842257930619, 
-0.5745717287063599, -0.802028477191925, 0.5124176228987807, 1727989842288216362, 
0.2788431644439697, -0.24128782749176025, 0.5022388284002317, 1727989842319301979, 
-0.08582228422164917, 0.6326185464859009, 0.5211801055269798, 1727989842351277151, 
0.1929492950439453, 0.28842872381210327, 0.5857281651415077, 1727989842378221967, 
-0.19299453496932983, 0.05435836315155029, 0.44176266951299675, 1727989842400429586, 
-0.21469861268997192, 0.508991003036499, 0.4893237578597844, 1727989842431310195, 
0.15736156702041626, 0.4342128038406372, 0.5545164862019721, 1727989842468080972, 
0.22549551725387573, -0.07156133651733398, 0.4888828219876928, 1727989842498327163, 
-0.033157527446746826, -0.02940446138381958, 0.492944714987299, 1727989842528136289, 
-0.17423731088638306, 0.4255668520927429, 0.4583623350874295, 1727989842559660916, 
-0.17750489711761475, -0.05710703134536743, 0.4617400665798466, 1727989842592283991, 
-0.21206367015838623, -0.05414891242980957, 0.5704796755666337, 1727989842628456869, 
0.3236609101295471, 0.3450555205345154, 0.5029942277060282, 1727989842658339978, 
-0.13316625356674194, 0.07553625106811523, 0.4961655512519376, 1727989842688437719, 
0.07186055183410645, -0.05062156915664673, 0.4752682543684468, 1727989842719785648, 
0.012789785861968994, 0.1371060609817505, 0.4921602715769618, 1727989842751321650, 
-0.016617178916931152, 0.42922085523605347, 0.5543297337131241, 1727989842788392987, 
-0.24726355075836182, 0.3920007348060608, 0.48222187526554705, 1727989842818313390, 
-0.4475761651992798, -0.7008472681045532, 0.46723607205578815, 1727989842848567769, 
-0.3191331624984741, 0.2950555086135864, 0.4599689453331738, 1727989842879638976, 
0.1643320918083191, 0.8173324465751648, 0.4917354073521582, 1727989842910699641, 
-0.2929251194000244, -0.7169210314750671, 0.5058968104543932, 1727989842939154098, 
0.04307365417480469, 0.10995316505432129, 0.486083150750317, 1727989842968455384, 
0.26892274618148804, -0.17921316623687744, 0.4195882872494913, 1727989842991313104, 
-0.3207516670227051, -0.33939188718795776, 0.523018085322636, 1727989843018674976, 
0.023061931133270264, 0.8597428798675537, 0.5080327693968761, 1727989843048522216, 
-0.22840279340744019, -0.28655630350112915, 0.525953814708028, 1727989843078584308, 
0.024168312549591064, -0.24861979484558105, 0.507378559614313, 1727989843108607885, 
0.16985291242599487, 0.6198855638504028, 0.5467105046647917, 1727989843137745814, 
-0.11696076393127441, -0.018604040145874023, 0.5178799186892553, 1727989843167640126, 
-0.11977136135101318, -0.18156123161315918, 0.48058526309508637, 1727989843199429673, 
-0.29456764459609985, -0.31023454666137695, 0.5047843152127066, 1727989843231745065, 
0.02592247724533081, 0.04534989595413208, 0.5618403541188903, 1727989843267714645, 
0.3451106548309326, 0.6580043435096741, 0.53056750510479, 1727989843296694871, 
-0.5169112682342529, -0.13602250814437866, 0.4799037507632861, 1727989843327731255, 
-0.5920192003250122, -0.29162102937698364, 0.4675098995547292, 1727989843359805397, 
-1.068379521369934, 0.131553053855896, 0.4716917243775148, 1727989843391539265, 
-1.0359241962432861, 0.11070311069488525, 0.418580281220449, 1727989843418803309, 
-0.8123184442520142, -0.26798295974731445, 0.3116008708736484, 1727989843448988268, 
-0.8742939829826355, 0.00398331880569458, 0.24539085728522236, 1727989843471375740, 
-0.5941857099533081, -0.15346497297286987, 0.22787367771589384, 1727989843498851119, 
-0.7089787721633911, -0.14708799123764038, 0.13087918127616904, 1727989843528831881, 
0.002963721752166748, -0.08980321884155273, 0.08914322183665181, 1727989843551958102, 
1.2030144929885864, 0.13840514421463013, 0.11585623087699366, 1727989843588971111, 
1.1583080291748047, 0.305015504360199, 0.23499615191725437, 1727989843619183500, 
0.7863497138023376, 0.20329022407531738, 0.33267557983554163, 1727989843649448784, 
1.1665363311767578, 0.20596009492874146, 0.39364306113243663, 1727989843679903931, 
0.9741474986076355, 0.06586229801177979, 0.4312685314133264, 1727989843711372015, 
0.15138155221939087, 0.30035537481307983, 0.497466830935541, 1727989843739050197, 
-0.012210369110107422, 0.29856258630752563, 0.5132767587093559, 1727989843769317793, 
-0.08352148532867432, 0.006642699241638184, 0.5597742637854116, 1727989843799030462, 
-0.518341600894928, -0.25552600622177124, 0.5649886944615582, 1727989843829207170, 
0.3007531762123108, 0.4750024080276489, 0.5569936440316432, 1727989843859125281, 
-0.1632484793663025, 0.45830196142196655, 0.5218909271486856, 1727989843889120917, 
-0.03207063674926758, -0.6492997407913208, 0.5040286133540831, 1727989843919365911, 
0.06833285093307495, 0.0683218240737915, 0.4294368653402504, 1727989843951802922, 
0.18186527490615845, 0.7591089010238647, 0.49791272902598643, 1727989843989238510, 
-0.33024412393569946, 0.530091404914856, 0.5022852846550123, 1727989844019231478, 
-0.14631688594818115, -0.024650931358337402, 0.49055175573280047, 1727989844049985498, 
-0.528997540473938, -0.4337576627731323, 0.5214586084057989, 1727989844079638096, 
0.19417202472686768, 0.6265324354171753, 0.49635129632424624, 1727989844111614284, 
0.16238820552825928, 0.4023100733757019, 0.5250906483654866, 1727989844139366428, 
-0.20231151580810547, -0.677864670753479, 0.47503831010575703, 1727989844170290394, 
0.5084230899810791, 0.23697000741958618, 0.5252352959640394, 1727989844199920053, 
0.038990139961242676, 0.5538219809532166, 0.5051325877582975, 1727989844229963855, 
-0.6872842311859131, -0.4775207042694092, 0.5023933141127125, 1727989844259935397, 
-0.011498749256134033, 0.2083204984664917, 0.5038841958609095, 1727989844289963964, 
0.03116375207901001, 0.44630175828933716, 0.5141455184148268, 1727989844320120575, 
0.05174928903579712, -0.33994245529174805, 0.4921626191298966, 1727989844351831007, 
0.11121147871017456, 0.1414828896522522, 0.5169930552757049, 1727989844382054214, 
-0.2548990845680237, 0.08951067924499512, 0.5362192341714805, 1727989844420007756, 
-0.3521237373352051, 0.5249663591384888, 0.48299752715238137, 1727989844450230034, 
-0.4242609143257141, -0.1448047161102295, 0.47179485380803204, 1727989844480037044, 
-0.7997044920921326, -0.5006770491600037, 0.3992051907278348, 1727989844511843550, 
-1.6634604930877686, 0.3804894685745239, 0.3081271747160943, 1727989844542302179, 
-0.7233278751373291, -0.03389132022857666, 0.3098615256295429, 1727989844570096139, 
-0.4911019802093506, -0.23920899629592896, 0.22083044338791524, 1727989844600132634, 
-0.8326146602630615, 0.00587010383605957, 0.13076164951158914, 1727989844622052572, 
-0.6577326655387878, -0.13426417112350464, 0.11131965648931028, 1727989844650138265, 
-0.07495492696762085, -0.10995137691497803, 0.06729152568183205, 1727989844680043242, 
-0.4915936589241028, 0.11437481641769409, -0.007078361104812668, 1727989844702324562, 
-0.03949546813964844, -0.004197478294372559, -0.051575161914864845, 1727989844740046502, 
-0.04110509157180786, -0.024722695350646973, -0.015864363929731968, 1727989844770104472, 
0.05181598663330078, 0.11642688512802124, 0.003825008696836477, 1727989844800087286, 
0.03949248790740967, 0.01796644926071167, 0.01063200621240945, 1727989844831818340, 
0.11485153436660767, -0.03010934591293335, 0.0011249248939697147, 1727989844862285313, 
1.4227697849273682, 0.13322460651397705, 0.10271695383253489, 1727989844900565166, 
0.7227391004562378, 0.4226245880126953, 0.1949077974073595, 1727989844930191225, 
0.9100914597511292, -0.12982553243637085, 0.2220572254185344, 1727989844960124783, 
0.5928342342376709, 0.06805413961410522, 0.2569000954709296, 1727989844991483432, 
0.24535661935806274, 0.3933659791946411, 0.3238932921103165, 1727989845022996432, 
0.7979741096496582, -0.10626327991485596, 0.4230311431543784, 1727989845050299635, 
0.7162430286407471, 0.07687830924987793, 0.41197368607084855, 1727989845080190059, 
0.37339115142822266, 0.2997780442237854, 0.41572889934163154, 1727989845102368866, 
-0.2536471486091614, -0.1833631992340088, 0.5443722057566593, 1727989845140313689, 
-0.2107071876525879, 0.4221919775009155, 0.5334899209646617, 1727989845170170964, 
0.3322112560272217, 0.7967032194137573, 0.5294878611929452, 1727989845200378442, 
-0.5989579558372498, -0.605613112449646, 0.48901178176808263, 1727989845231635299, 
-0.10274845361709595, -0.25936222076416016, 0.49152907287012637, 1727989845263503875, 
-0.08150088787078857, -0.03478562831878662, 0.5524020379965432, 1727989845300338427, 
0.05409669876098633, 0.8812142610549927, 0.48664404924230986, 1727989845330399298, 
-0.3900895118713379, -0.4412795305252075, 0.49776079736845413, 1727989845360385949, 
-0.1816125512123108, -0.08487224578857422, 0.46441470964875087, 1727989845391587981, 
0.07562679052352905, 0.6609866619110107, 0.46454673830088106, 1727989845422697968, 
-0.2357681393623352, 0.5805621147155762, 0.5052687828920089, 1727989845460427441, 
-0.14217638969421387, -0.40125328302383423, 0.49463125584292456, 1727989845490469442, 
0.11990571022033691, 0.05876809358596802, 0.5688174295129733, 1727989845520498288, 
0.02914530038833618, 0.7366219162940979, 0.5053401100523894, 1727989845551459392, 
-0.19950616359710693, -0.3966429829597473, 0.47231336618252046, 1727989845583948612, 
-0.2323964238166809, -0.44160711765289307, 0.5714772055488522, 1727989845620396533, 
-0.0695730447769165, 0.10008478164672852, 0.5271822954869337, 1727989845650384742, 
0.05993276834487915, 0.621197521686554, 0.5438055566955159, 1727989845680444277, 
0.09642434120178223, -0.067807137966156, 0.4734720773582408, 1727989845711473021, 
0.10220503807067871, -0.18721365928649902, 0.45006474081599207, 1727989845743649190, 
0.1657465696334839, -0.08378928899765015, 0.5468496601572937, 1727989845780881618, 
-0.44241732358932495, 0.5105454325675964, 0.5056401561730479, 1727989845810625625, 
-0.08913403749465942, 0.015188455581665039, 0.4928190914808996, 1727989845840516261, 
-0.2269572615623474, -0.23805832862854004, 0.4694427060318821, 1727989845871677632, 
0.33502358198165894, 0.40840035676956177, 0.44850141456188924, 1727989845905165114, 
0.1515699028968811, 0.45400911569595337, 0.5706828020801173, 1727989845940521753, 
-0.1112092137336731, 0.17719167470932007, 0.4974837735006202, 1727989845970641202, 
-0.03666418790817261, -0.48797059059143066, 0.49782549057231906, 1727989846000630691, 
0.060891151428222656, 0.40993237495422363, 0.4710626082746836, 1727989846031858059, 
-0.26289886236190796, 0.40752917528152466, 0.477637358821124, 1727989846063620394, 
0.059836626052856445, -0.518187940120697, 0.5655603600588075, 1727989846090660095, 
0.24458807706832886, 0.7213123440742493, 0.5121991245734681, 1727989846120647524, 
-0.06217241287231445, 0.3744051456451416, 0.5003830338236105, 1727989846150653633, 
-0.022212088108062744, -0.748327374458313, 0.5094581406988731, 1727989846180654826, 
-0.010920703411102295, 0.8424379229545593, 0.5388677989232695, 1727989846200684864, 
-0.23969465494155884, 0.6138883233070374, 0.5307297867108565, 1727989846240687186, 
-0.6926093101501465, -0.9183226823806763, 0.4822269870802161, 1727989846271693633, 
-0.6341453194618225, 0.1579442024230957, 0.3618382105974277, 1727989846303974145, 
-0.6286181807518005, 0.02146369218826294, 0.34379988588227395, 1727989846340958128, 
-0.8921711444854736, 0.3857005834579468, 0.26417980577674105, 1727989846370903192, 
-0.5809720754623413, -0.3571581244468689, 0.202126976886228, 1727989846399826973, 
-0.8136292695999146, -0.2688862085342407, 0.13488506557118293, 1727989846431129691, 
-0.24261170625686646, 0.1968461275100708, 0.10857584059763706, 1727989846463769005, 
2.014082431793213, 0.8680080771446228, 0.1920198538933584, 1727989846500873818, 
0.9680291414260864, -0.01809537410736084, 0.3144782700610989, 1727989846530940066, 
1.1250349283218384, -0.16215503215789795, 0.35028924990178584, 1727989846560976404, 
0.8195124268531799, 0.38212472200393677, 0.40738806854288406, 1727989846591517782, 
1.1287823915481567, 0.15256696939468384, 0.45521598596983176, 1727989846623984382, 
-0.303710401058197, 0.24660074710845947, 0.5799384766639083, 1727989846661003413, 
0.2770566940307617, 0.04764026403427124, 0.5434588736793668, 1727989846691024941, 
-0.012357473373413086, 0.14424526691436768, 0.5308654589734997, 1727989846721004332, 
-0.3458802103996277, 0.0480688214302063, 0.5096464368685278, 1727989846751955812, 
-0.13242489099502563, 0.06013000011444092, 0.5061273884584603, 1727989846782716227, 
-0.3751797676086426, 0.38868749141693115, 0.5241201153733646, 1727989846821346186, 
0.1725577712059021, 0.10730451345443726, 0.4901383810568409, 1727989846851101366, 
-0.2890288829803467, -0.06827068328857422, 0.4467404994921849, 1727989846881369443, 
0.7854841351509094, 0.20708495378494263, 0.48146287066815835, 1727989846911608726, 
-0.27579784393310547, 0.20115703344345093, 0.47494748999581704, 1727989846943986272, 
-0.26152467727661133, -0.20669788122177124, 0.5390105797160009, 1727989846971277899, 
-0.019295096397399902, 0.265228807926178, 0.4842465386655369, 1727989847001294418, 
-0.3239606022834778, 0.32719874382019043, 0.4753595567953821, 1727989847031266029, 
-0.1997256875038147, -0.2913755774497986, 0.4899290082180467, 1727989847061687888, 
0.9770388603210449, 0.14919865131378174, 0.518529533672868, 1727989847091270357, 
-0.8963951468467712, 0.5961394309997559, 0.47324105779471515, 1727989847121396790, 
-0.07851213216781616, -0.4425346851348877, 0.4843290504042394, 1727989847151795818, 
0.20064157247543335, 0.05781900882720947, 0.4619592104300964, 1727989847184410173, 
-0.3754799962043762, 0.8439933657646179, 0.555291976097195, 1727989847211419780, 
-0.1290903091430664, -0.5218096375465393, 0.5435038547437281, 1727989847241546599, 
-0.08791100978851318, 1.073636770248413, 0.4671311853288453, 1727989847264309195, 
0.48151981830596924, 0.42873162031173706, 0.5627172126917913, 1727989847301407976, 
-0.2818235158920288, -0.23944181203842163, 0.4943140278326887, 1727989847331641666, 
0.01259922981262207, 0.06773573160171509, 0.5010698819791809, 1727989847361557008, 
-0.14647305011749268, 0.7568219900131226, 0.5406903495843755, 1727989847391988009, 
0.17487531900405884, -0.022763490676879883, 0.4872009244191091, 1727989847423787979, 
-0.2769225835800171, -0.31866294145584106, 0.5023373345789448, 1727989847452709436, 
-0.9645912051200867, -0.4448196291923523, 0.5042400752882673, 1727989847491640860, 
-0.8888540863990784, 0.147186279296875, 0.3826942350032262, 1727989847521598296, 
-1.4131841659545898, 0.18425911664962769, 0.3189111384628863, 1727989847551862676, 
-0.3252031207084656, -0.2401227355003357, 0.24180644754396124, 1727989847584244326, 
-0.6360840201377869, -0.3895050883293152, 0.20915235341485303, 1727989847613924107, 
0.08404868841171265, 0.1602218747138977, 0.1616379098013457, 1727989847641661809, 
0.42703479528427124, 0.10725593566894531, 0.11491907313951992, 1727989847670709062, 
1.7050285339355469, 0.25210678577423096, 0.16520205731426146, 1727989847700701932, 
0.9148960113525391, 0.30872678756713867, 0.31893929840731533, 1727989847731918179, 
1.0430856943130493, 0.18352508544921875, 0.4036484617383595, 1727989847761759137, 
1.1589748859405518, 0.0331149697303772, 0.44883630869713154, 1727989847791932809, 
0.6070199012756348, 0.27396851778030396, 0.46810376847547563, 1727989847823549786, 
-0.3771907091140747, -0.2645675539970398, 0.5154834403470602, 1727989847854501829, 
-0.1619308590888977, 0.09248524904251099, 0.5799021655453783, 1727989847881822636, 
-0.3209497928619385, -0.037950098514556885, 0.4699214993782132, 1727989847904056637, 
-0.6097772121429443, -0.6869471669197083, 0.5290025109074422, 1727989847934628467, 
-0.36941105127334595, -0.31177806854248047, 0.603086461003336, 1727989847970916642, 
0.5209293961524963, 0.9905726313591003, 0.5202245725666623, 1727989848000906086, 
-0.3137919306755066, -0.15548473596572876, 0.45728360534557255, 1727989848032023646, 
0.0768701434135437, -0.6163443326950073, 0.41563305635097947, 1727989848064194309, 
0.21180731058120728, 0.898526668548584, 0.4244836045352622, 1727989848095087687, 
-0.6046757102012634, 0.02613687515258789, 0.5349837778517113, 1727989848122544816, 
-0.17531496286392212, -0.6144750118255615, 0.5189677760682697, 1727989848152271853, 
-0.545318603515625, 0.2664772868156433, 0.5200520416053644, 1727989848182085183, 
-0.905396580696106, 0.20251208543777466, 0.40406085662118674, 1727989848212229979, 
-1.4267600774765015, -0.34582751989364624, 0.3122762001534311, 1727989848242111491, 
-0.48986488580703735, -0.18850505352020264, 0.25679818218208433, 1727989848272165262, 
-0.5242859721183777, 0.016451716423034668, 0.19707923875459304, 1727989848303634633, 
-0.4610750079154968, 0.43605339527130127, 0.14932440478392212, 1727989848335159730, 
-1.0005111694335938, -0.2819823622703552, 0.08930166742458476, 1727989848362417531, 
-0.31789666414260864, -0.23812413215637207, 0.042581313614901535, 1727989848392207178, 
0.0736551284790039, 0.2371807098388672, 0.04090566332304, 1727989848422180437, 
0.2703384757041931, 0.03366965055465698, -0.009105585744148954, 1727989848452245058, 
0.005944550037384033, -0.23838353157043457, -0.03218950570759726, 1727989848482608311, 
0.16729730367660522, 0.049082040786743164, -0.023921226737398226, 1727989848512319428, 
-0.07325834035873413, 0.11294454336166382, -0.0002466663014049386, 1727989848544459514, 
0.5366928577423096, 0.04957360029220581, 0.02063918986641593, 1727989848574725293, 
1.4974027872085571, 0.13922911882400513, 0.17473913034375696, 1727989848601779008, 
1.4077067375183105, 0.041959404945373535, 0.2028960920203167, 1727989848642393074, 
0.21430963277816772, 0.278931200504303, 0.2300313552189132, 1727989848672457820, 
0.3757839798927307, 0.140228271484375, 0.29033947084596523, 1727989848703643560, 
1.0114036798477173, 0.008057236671447754, 0.3382756970430514, 1727989848736276799, 
0.6211720705032349, 0.10204392671585083, 0.4576056189625153, 1727989848772448598, 
0.8455982208251953, 0.38174307346343994, 0.4651363562162345, 1727989848802583056, 
0.05492430925369263, 0.20759761333465576, 0.5271460539023469, 1727989848832691503, 
-0.0793313980102539, -0.18911439180374146, 0.528220197586624, 1727989848864067527, 
0.14911985397338867, -0.03072124719619751, 0.5192714464683926, 1727989848895946208, 
-0.3523521423339844, 0.3998762369155884, 0.6089150630170325, 1727989848922654805, 
0.06765127182006836, 0.09944820404052734, 0.5367896937580995, 1727989848952590485, 
-0.21332919597625732, -0.3489797115325928, 0.50187038032208, 1727989848982577804, 
-0.23483127355575562, 0.22480201721191406, 0.47312682028045194, 1727989849012602361, 
0.11710679531097412, 0.3704283833503723, 0.48251921373232576, 1727989849042603172, 
-0.3299381732940674, -0.313429057598114, 0.48174795371033696, 1727989849072688346, 
0.23954665660858154, 0.25144946575164795, 0.47847201590723965, 1727989849103637721, 
0.5108799338340759, 0.35433733463287354, 0.48820284374211553, 1727989849135634024, 
0.4065117835998535, -0.19087368249893188, 0.5502148094677196, 1727989849162935178, 
-0.11607658863067627, -0.1724381446838379, 0.5170221680500273, 1727989849193181001, 
-0.3079419732093811, 0.46540558338165283, 0.4934101974442552, 1727989849214696505, 
0.1843268871307373, 0.19959676265716553, 0.5341594571572846, 1727989849252804211, 
-0.4059533476829529, -0.47078996896743774, 0.49153896921081386, 1727989849283024089, 
0.0014052391052246094, 0.2987706661224365, 0.46833168456491137, 1727989849312821106, 
-0.1478012204170227, 0.6613864898681641, 0.4681460170015884, 1727989849344191725, 
-0.36269986629486084, -0.6413522958755493, 0.4806728218164847, 1727989849376128388, 
0.04631096124649048, 0.21939706802368164, 0.5637920552591594, 1727989849402986717, 
0.16975408792495728, 0.32168257236480713, 0.5039876559169922, 1727989849442885472, 
-0.17488688230514526, 0.32682108879089355, 0.5008670075220798, 1727989849472892836, 
-0.21897447109222412, -0.5806007981300354, 0.49326794593856443, 1727989849504189315, 
0.2522154450416565, 0.3133963346481323, 0.5044691672184989, 1727989849534951973, 
0.15235215425491333, 0.5919687151908875, 0.5304792854010116, 1727989849562322179, 
-0.3340245485305786, -0.5650147795677185, 0.49167981534564187, 1727989849592146125, 
0.17598044872283936, 0.7157679796218872, 0.4423976442515329, 1727989849614936095, 
0.08230006694793701, 0.6941898465156555, 0.5556719792076686, 1727989849653039829, 
-0.30097055435180664, -0.4448573589324951, 0.524462468295993, 1727989849683226468, 
0.06399059295654297, -0.23599964380264282, 0.507271663559613, 1727989849713108391, 
-0.1614869236946106, 0.6367839574813843, 0.5037744579238665, 1727989849743630224, 
0.061261892318725586, -0.17551934719085693, 0.48623838893138877, 1727989849775690903, 
0.2266068458557129, -0.020591795444488525, 0.5453999841220899, 1727989849803269650, 
-0.46660399436950684, 0.3766942620277405, 0.5055486950404346, 1727989849833212064, 
0.16684406995773315, -0.05524420738220215, 0.4859450676715307, 1727989849863295018, 
-0.40039533376693726, -0.05529075860977173, 0.4913123937792745, 1727989849893226743, 
0.22532379627227783, 0.16558146476745605, 0.5068982385947812, 1727989849923259961, 
0.010670602321624756, -0.07895749807357788, 0.5164883462926462, 1727989849953290961, 
-0.21743810176849365, 0.06894594430923462, 0.48938522200209, 1727989849983687888, 
-0.18371665477752686, 0.20840412378311157, 0.4562346199249872, 1727989850016397166, 
0.2388717532157898, 0.15922629833221436, 0.5742838662416546, 1727989850042709555, 
-0.21948325634002686, -0.13293159008026123, 0.4738049220345479, 1727989850073588789, 
0.12585633993148804, -0.3065890669822693, 0.5054557118733481, 1727989850103356999, 
0.27473175525665283, 0.8180734515190125, 0.5100928255357238, 1727989850133444489, 
0.05896031856536865, -0.13460129499435425, 0.5022907041705442, 1727989850163615740, 
-0.4856181740760803, -0.48797154426574707, 0.5065638507577223, 1727989850193470636, 
0.3452680706977844, 0.6343016028404236, 0.4858861326257054, 1727989850223824248, 
-0.14234185218811035, 0.006280004978179932, 0.4708936526619069, 1727989850254724306, 
0.2015344500541687, -0.49803125858306885, 0.5011426927352761, 1727989850283611906, 
0.4322245717048645, 0.42032092809677124, 0.48915008025497264, 1727989850313523488, 
-0.23276281356811523, 0.2856333255767822, 0.5268737752556153, 1727989850342707351, 
-0.5088984966278076, -0.5236106514930725, 0.49968665630799464, 1727989850373587524, 
0.2885740399360657, 0.3170665502548218, 0.5109827330736759, 1727989850402729408, 
0.19854605197906494, 0.48037052154541016, 0.46840597387084637, 1727989850433602799, 
-0.05903905630111694, -0.4456537365913391, 0.4854088637401205, 1727989850464438618, 
0.28146499395370483, 0.08623003959655762, 0.48767812384581594, 1727989850495912834, 
-0.09653955698013306, 0.6022961139678955, 0.5752571032506513, 1727989850522707608, 
-0.03916436433792114, -0.39273762702941895, 0.4982696076815808, 1727989850553653087, 
-0.38345789909362793, -0.0867455005645752, 0.4883114963776233, 1727989850583689957, 
-0.21847045421600342, 0.6708097457885742, 0.4971794979798313, 1727989850613995280, 
0.14226120710372925, -0.27180951833724976, 0.5449518107250658, 1727989850643754481, 
-0.2709670066833496, -0.12361353635787964, 0.5335171330763578, 1727989850673747841, 
0.43586742877960205, 0.31528395414352417, 0.524953886324599, 1727989850703923019, 
0.010302722454071045, -0.014142394065856934, 0.45579364589393884, 1727989850735667757, 
-0.4422208070755005, -0.03077113628387451, 0.5136193421573084, 1727989850763927504, 
0.3150652050971985, 0.31057411432266235, 0.5157860082689939, 1727989850793945345, 
-0.09204721450805664, -0.056100308895111084, 0.5037165225368576, 1727989850823899668, 
0.11859053373336792, -0.273143470287323, 0.4873105545575489, 1727989850854013938, 
0.14412927627563477, 0.20612162351608276, 0.4932569567248563, 1727989850883985058, 
-0.04211455583572388, 0.492633581161499, 0.46625909738733073, 1727989850914370931, 
-0.21628320217132568, -0.12580138444900513, 0.5301388336633178, 1727989850944061456, 
-0.12202847003936768, -0.27400994300842285, 0.4925045411262699, 1727989850976158526, 
0.33408862352371216, 0.6295944452285767, 0.5347684334116609, 1727989851004068132, 
-0.18414682149887085, -0.08137321472167969, 0.5029265783439802, 1727989851033963853, 
0.08795613050460815, -0.4150353670120239, 0.4942965922428153, 1727989851064264477, 
0.4467196464538574, 0.8088046908378601, 0.519254239046208, 1727989851094062169, 
-0.28352147340774536, -0.11804533004760742, 0.5064862292416173, 1727989851124084949, 
-0.4607260823249817, -0.5107131004333496, 0.5140552360637167, 1727989851153051933, 
0.7338716983795166, 0.5196045637130737, 0.4752107511482167, 1727989851183258858, 
-0.4527730941772461, -0.04485642910003662, 0.4420552784088075, 1727989851215932266, 
0.21139049530029297, -0.43857985734939575, 0.5029244393474471, 1727989851246355246, 
0.4330112338066101, 0.7525652647018433, 0.5432327445695145, 1727989851274185540, 
-0.11035972833633423, 0.2921621799468994, 0.48272436047337625, 1727989851304195607, 
-0.3274604082107544, -0.631462037563324, 0.4915052839722148, 1727989851334323125, 
-0.14544934034347534, 0.16955989599227905, 0.5080088738716765, 1727989851364267435, 
-0.8835932612419128, 0.4438970685005188, 0.4879624714954755, 1727989851394370254, 
-1.1338454484939575, -0.39611464738845825, 0.36810354235465637, 1727989851424291015, 
-1.0900020599365234, -0.5355024337768555, 0.2835487456504574, 1727989851455764313, 
-0.6043727397918701, 0.1667478084564209, 0.2366828621027361, 1727989851487523646, 
-0.5830581188201904, 0.2387446165084839, 0.18697284118016083, 1727989851524363103, 
-0.510357141494751, -0.522585928440094, 0.09214236225699855, 1727989851554371141, 
-0.9416260123252869, -0.20865356922149658, 0.047538147801299335, 1727989851584436868, 
-0.04929715394973755, 0.07849270105361938, 0.01551728304950035, 1727989851616448757, 
0.05234187841415405, -0.02036118507385254, -0.027562528481574904, 1727989851646890592, 
0.4670785665512085, -0.127086341381073, -0.03989475401865689, 1727989851674442532, 
1.4580981731414795, 0.5157909393310547, 0.126854406696035, 1727989851704442279, 
0.7807605862617493, 0.38846588134765625, 0.20516545842844974, 1727989851734605794, 
0.9053880572319031, -0.11324286460876465, 0.24263235352700033, 1727989851765470236, 
0.5056262016296387, -0.5191892385482788, 0.30709330362305554, 1727989851795349693, 
0.3354586958885193, 0.36387932300567627, 0.36540294349032665, 1727989851824551987, 
0.20691657066345215, 0.32677310705184937, 0.3707661122911003, 1727989851855925026, 
1.1689468622207642, -0.06931614875793457, 0.3964927979994386, 1727989851888105004, 
0.2794336676597595, 0.15019607543945312, 0.5383956473368914, 1727989851925314482, 
-0.05240201950073242, 0.43292349576950073, 0.5240589535173752, 1727989851955467048, 
-0.30127090215682983, -0.4849618077278137, 0.5549714154315811, 1727989851985321676, 
-0.20329499244689941, -0.050878047943115234, 0.564868257497209, 1727989852015852073, 
-0.26036858558654785, 0.32014620304107666, 0.5142035262226946, 1727989852048083039, 
0.038516342639923096, 0.12231791019439697, 0.5876678088537576, 1727989852075469749, 
-0.05449867248535156, -0.2884083390235901, 0.5043008159140169, 1727989852105371811, 
0.4219365119934082, 0.07622957229614258, 0.48713098862002807, 1727989852135383784, 
0.19160425662994385, 0.4898527264595032, 0.44167553171318596, 1727989852164822765, 
-0.1436682939529419, -0.4642186760902405, 0.40169538897381973, 1727989852194863695, 
-0.21626126766204834, -0.024387359619140625, 0.47241717115642257, 1727989852224898813, 
0.13362008333206177, 0.8910312652587891, 0.46396167610096345, 1727989852256470199, 
-0.14010846614837646, -0.6458450555801392, 0.47859343751629985, 1727989852288046291, 
0.10824918746948242, 0.23906588554382324, 0.5888243900675948, 1727989852314923628, 
0.1298069953918457, 0.6369951963424683, 0.5021648681401246, 1727989852345478383, 
-0.39871054887771606, -0.8053793907165527, 0.4988419168349586, 1727989852375488631, 
0.22942227125167847, 0.1930093765258789, 0.5123349452163102, 1727989852405441365, 
0.1684165596961975, 0.9559042453765869, 0.49102494506142585, 1727989852435628425, 
-0.269645631313324, -0.5338783860206604, 0.461076902787523, 1727989852465680155, 
0.22699475288391113, -0.30214858055114746, 0.4773867119062725, 1727989852495962809, 
-0.047515153884887695, 0.6354623436927795, 0.4645077416373502, 1727989852528002751, 
-0.1941894292831421, -0.10687321424484253, 0.5355671875977678, 1727989852555570590, 
0.24425339698791504, -0.44971561431884766, 0.5175278734226273, 1727989852585545915, 
-0.445176899433136, 0.4314020872116089, 0.48913439047628804, 1727989852615938567, 
0.28697484731674194, 0.4171791076660156, 0.5187340525135986, 1727989852645577263, 
-0.11343801021575928, -0.13593566417694092, 0.5226625675495452, 1727989852675668510, 
-0.07443702220916748, 0.012019991874694824, 0.5162798392207986, 1727989852705582078, 
-0.003682851791381836, 0.24081099033355713, 0.5098702275482249, 1727989852735824370, 
0.3422486186027527, 0.0809970498085022, 0.4589615600427113, 1727989852768228695, 
-0.38488245010375977, -0.3245106339454651, 0.5286579203393376, 1727989852805540898, 
0.24304050207138062, -0.00795447826385498, 0.5492635351785452, 1727989852835573177, 
-0.2942875623703003, 0.6691104173660278, 0.5263428564122377, 1727989852865502460, 
-0.33932679891586304, -0.34114766120910645, 0.49771359371880125, 1727989852895915436, 
-0.12020343542098999, -0.24864113330841064, 0.4492169783717691, 1727989852928474924, 
0.40626806020736694, 0.7033963799476624, 0.5443686980559883, 1727989852955609026, 
-0.17783069610595703, -0.15557515621185303, 0.5189100771614381, 1727989852985649890, 
-0.05425584316253662, 0.6308597922325134, 0.4570475841028781, 1727989853008607177, 
0.258880615234375, 0.32533907890319824, 0.5408489721715838, 1727989853035799797, 
-0.22255206108093262, -0.7861713767051697, 0.4953475876631074, 1727989853064726802, 
0.07455074787139893, 0.2598065137863159, 0.4754894253366686, 1727989853095687773, 
0.2520727515220642, 0.7968310713768005, 0.5157152395603226, 1727989853125484821, 
-0.15025144815444946, -0.737927258014679, 0.5024654230153648, 1727989853155581974, 
-0.0322149395942688, 0.23997485637664795, 0.4976995847529187, 1727989853185632560, 
-0.11725378036499023, 0.7968313694000244, 0.5040732297729362, 1727989853215927138, 
-0.353099524974823, -0.9237605333328247, 0.47964750681455975, 1727989853247997466, 
0.4255584478378296, 0.47723907232284546, 0.5511739463693234, 1727989853276023686, 
0.3100559115409851, 0.9731305241584778, 0.5214347164961867, 1727989853305560401, 
-0.1568182110786438, -0.9717212915420532, 0.4854029595348016, 1727989853335585108, 
0.11258620023727417, -0.18806976079940796, 0.49219591084065095, 1727989853365587721, 
-0.5567821860313416, 0.924522876739502, 0.5223498199768881, 1727989853395614591, 
-0.021932363510131836, -0.4579344391822815, 0.5333430027973936, 1727989853425684794, 
-0.03650754690170288, -0.22254621982574463, 0.5109432665375919, 1727989853456315720, 
-0.06122058629989624, -0.21222597360610962, 0.4808955137272206, 1727989853488266322, 
0.08501577377319336, 0.7052115201950073, 0.51971640836097, 1727989853525788183, 
-0.27889591455459595, 0.44751060009002686, 0.49021767470155925, 1727989853555839853, 
-0.0839417576789856, -0.6061407327651978, 0.5198880564679007, 1727989853585797801, 
-0.09416675567626953, 0.2606138586997986, 0.5261635150950734, 1727989853615872540, 
0.03452575206756592, 0.5131701231002808, 0.46826697720291033, 1727989853648639624, 
-0.44387149810791016, -0.4102070927619934, 0.5561264984545901, 1727989853675976243, 
-0.08538585901260376, 0.1641404628753662, 0.5115039541454195, 1727989853706007861, 
0.38276201486587524, 0.6968655586242676, 0.5197285872015543, 1727989853735851307, 
-0.3276470899581909, -0.41638314723968506, 0.495413658413636, 1727989853765859447, 
-0.2556689977645874, -0.36004638671875, 0.5049497708446118, 1727989853795898355, 
-0.2173944115638733, 0.865727961063385, 0.5049914958028358, 1727989853825927275, 
-0.5122547149658203, -0.22164660692214966, 0.5077877718148828, 1727989853856092021, 
-0.032991111278533936, -0.5342928767204285, 0.4726891978656239, 1727989853888060327, 
-0.06099867820739746, 0.7961316108703613, 0.5203095131260228, 1727989853916088346, 
0.13921016454696655, 0.011172652244567871, 0.48984519680700345, 1727989853946002690, 
-0.02221578359603882, 0.1647750735282898, 0.42592185569927443, 1727989853968462134, 
-0.06278634071350098, 0.7755812406539917, 0.4880430169038232, 1727989853998815099, 
0.033818066120147705, -0.7210814952850342, 0.5482730866488661, 1727989854026090030, 
-0.2841584086418152, 0.4288240671157837, 0.49931512958402274, 1727989854056348705, 
0.3594987988471985, 0.6877527832984924, 0.5142786467058967, 1727989854086166314, 
-0.5895248055458069, -0.962299644947052, 0.5134233795361645, 1727989854116147406, 
0.29499542713165283, 0.27798670530319214, 0.5054342079032651, 1727989854146216660, 
-0.19355589151382446, 0.8188314437866211, 0.5140772573694518, 1727989854176609455, 
0.23429691791534424, -0.5634528398513794, 0.494366048656956, 1727989854207068304, 
-0.011853277683258057, -0.09675431251525879, 0.4732693730327479, 1727989854239078362, 
0.06747937202453613, 0.7723099589347839, 0.5763777946200647, 1727989854266288791, 
-0.2651163935661316, -0.3150986433029175, 0.5064812162986819, 1727989854296311425, 
-0.015302538871765137, -0.4724629521369934, 0.5078357057162388, 1727989854326455821, 
0.05721092224121094, -0.03308296203613281, 0.4945711279806021, 1727989854356368933, 
-0.3130037188529968, 0.5302053689956665, 0.4740422312162054, 1727989854386340752, 
0.030926883220672607, -0.18334388732910156, 0.544362552344011, 1727989854416317893, 
-0.5290209054946899, 0.05701589584350586, 0.512495661654511, 1727989854448283524, 
-0.06893754005432129, 0.33272087574005127, 0.496598579751746, 1727989854479562671, 
0.18123763799667358, -0.11245238780975342, 0.536428710995435, 1727989854506450697, 
-0.2568988800048828, -0.11491751670837402, 0.467477919314508, 1727989854536428492, 
0.23204350471496582, 0.47170567512512207, 0.5016962056116655, 1727989854566661744, 
-0.16857945919036865, -0.07439839839935303, 0.521272558353568, 1727989854596515795, 
-0.22809970378875732, -0.049549102783203125, 0.4829720793048265, 1727989854626514550, 
-0.19598758220672607, 0.31493890285491943, 0.5029521239865309, 1727989854655720810, 
-0.19625425338745117, 0.04712545871734619, 0.46747340582343727, 1727989854688124553, 
-0.07462763786315918, -0.26849955320358276, 0.5018757636582465, 1727989854719838789, 
0.19916808605194092, 0.3214103579521179, 0.600141011929857, 1727989854746665117, 
-0.13080495595932007, 0.41946202516555786, 0.5030665288164153, 1727989854776606627, 
-0.25393229722976685, -0.5324851870536804, 0.507696175806204, 1727989854805827158, 
-0.09061694145202637, 0.1859714388847351, 0.49442117367934285, 1727989854835741367, 
-0.05211454629898071, 0.8182147145271301, 0.4807634750594641, 1727989854865696379, 
0.0825466513633728, -0.718889057636261, 0.4643337852757261, 1727989854896661141, 
0.028569042682647705, 0.19856208562850952, 0.47070278395684534, 1727989854928590942, 
-0.22944974899291992, 0.7809675335884094, 0.4731372112863594, 1727989854960098518, 
-0.261435329914093, -0.8337690234184265, 0.5704089031928299, 1727989854987021866, 
-0.3126406669616699, 0.1889914870262146, 0.4776937177034303, 1727989855088197483, 
-0.18936407566070557, -0.6323255300521851, 0.45734993065104756, 1727989855119731445, 
0.13759738206863403, 0.39538323879241943, 0.538310298356596, 1727989855147375520, 
-0.21972203254699707, 0.9185728430747986, 0.5429821234402398, 1727989855176910635, 
0.23800110816955566, 0.2180972695350647, 0.5348103138766003, 1727989855207058557, 
-0.13819116353988647, -0.708042323589325, 0.5164789532298683, 1727989855236962129, 
0.3510914444923401, 0.47586148977279663, 0.5090089188843667, 1727989855267017991, 
0.05997592210769653, 0.3666822910308838, 0.5186716733652376, 1727989855296994975, 
-0.6279135942459106, -0.28576940298080444, 0.49363202392419137, 1727989855328251878, 
0.08431553840637207, 0.13480240106582642, 0.4847035246721592, 1727989855360230344, 
0.16313451528549194, 0.30447590351104736, 0.5373448386477069, 1727989855387111142, 
-0.10316628217697144, -0.09344738721847534, 0.46070289320192453, 1727989855417069622, 
0.22446691989898682, 0.025635123252868652, 0.4947572136472076, 1727989855447053045, 
-0.02989751100540161, 0.5413608551025391, 0.5176565204754748, 1727989855477198574, 
-0.06436502933502197, -0.18034487962722778, 0.5144489901654268, 1727989855507062030, 
-0.17139756679534912, -0.20843613147735596, 0.5062572542467794, 1727989855537107749, 
-0.03411942720413208, 0.624661386013031, 0.4626038153909698, 1727989855568678732, 
-0.09705853462219238, -0.11376392841339111, 0.4814298705710044, 1727989855600165756, 
0.12311625480651855, -0.3531115651130676, 0.5291031683759557, 1727989855637273970, 
0.150723397731781, 0.03413033485412598, 0.4899033277800821, 1727989855667356730, 
0.18469715118408203, 0.6178601384162903, 0.515625931486953, 1727989855697207038, 
-0.6661775708198547, -0.42541247606277466, 0.4778559531392461, 1727989855728559980, 
0.9026151895523071, -0.05082404613494873, 0.47740163174511613, 1727989855760564568, 
-0.13437306880950928, 0.993457019329071, 0.5682872333109912, 1727989855787403077, 
0.17248231172561646, -0.3223065733909607, 0.4925184612775234, 1727989855817287928, 
0.2383367419242859, -0.36666029691696167, 0.5115896023816501, 1727989855846323821, 
-0.40895533561706543, 0.9563954472541809, 0.4755129623791159, 1727989855877449994, 
0.0640677809715271, -0.40750545263290405, 0.5125762656363639, 1727989855907360073, 
-0.1605292558670044, -0.3090832233428955, 0.4771095554021246, 1727989855937754214, 
0.06882989406585693, 0.8275736570358276, 0.46001986275690715, 1727989855968240888, 
-0.2487088441848755, -0.21989822387695312, 0.5046610569119475, 1727989856000154946, 
-0.4026171565055847, -0.4373883008956909, 0.5884749931002529, 1727989856027653859, 
-0.07338780164718628, -0.005469679832458496, 0.5348427591256253, 1727989856057532328, 
-0.5076891183853149, 0.0328485369682312, 0.43001095771915593, 1727989856081025513, 
-1.8877828121185303, -0.7026426196098328, 0.4698117065060239, 1727989856106705766, 
-0.8337096571922302, 0.14028429985046387, 0.3147417460414549, 1727989856137519539, 
-0.623306930065155, 0.40981465578079224, 0.2957339524707019, 1727989856167624664, 
-0.7593806385993958, -0.35714948177337646, 0.222180424692702, 1727989856197633381, 
-0.4834948778152466, -0.36988139152526855, 0.13969617069208085, 1727989856227836730, 
-0.09563040733337402, 0.1224743127822876, 0.08264756019518076, 1727989856257668715, 
1.609647274017334, 0.6290810108184814, 0.12082803464417104, 1727989856288865303, 
0.9585819840431213, 0.31747013330459595, 0.27713395308513195, 1727989856320181807, 
1.1556923389434814, -0.1251850724220276, 0.3831220131376953, 1727989856348088506, 
1.078780174255371, 0.2963458299636841, 0.42713270984363777, 1727989856376727938, 
0.7733956575393677, -0.247541606426239, 0.3621715097210348, 1727989856400658696, 
-0.38184982538223267, -0.06988978385925293, 0.5155158141719658, 1727989856437934603, 
0.18429690599441528, 0.15151172876358032, 0.5551695497254462, 1727989856467761123, 
-0.4161909222602844, 0.6095814108848572, 0.5504362391815173, 1727989856497967411, 
-0.30527687072753906, -0.1569880247116089, 0.5500880491420398, 1727989856528659980, 
0.2188044786453247, -0.22326457500457764, 0.5217802004752102, 1727989856560139135, 
-0.01606541872024536, 0.6328091621398926, 0.5671849815400754, 1727989856587937850, 
0.04829883575439453, 0.21832817792892456, 0.49890520038577607, 1727989856617904011, 
-0.3974764943122864, -0.7115636467933655, 0.47153676571182174, 1727989856647868678, 
0.5607939958572388, 0.47990310192108154, 0.4523612387368098, 1727989856677934812, 
-0.07763445377349854, 0.43424803018569946, 0.4731873827169975, 1727989856707915198, 
-0.031695425510406494, -0.301350474357605, 0.4992648654650711, 1727989856737959001, 
0.36504262685775757, 0.5025432705879211, 0.5078812566948433, 1727989856768240650, 
-0.05745697021484375, 0.4470760226249695, 0.4976322085478221, 1727989856800090906, 
-0.2248777151107788, -0.356686532497406, 0.47621420840986967, 1727989856830424114, 
-0.33560800552368164, -0.82554030418396, 0.5368955636605515, 1727989856857395057, 
0.23944497108459473, 0.6303225159645081, 0.49894540691024564, 1727989856888149969, 
-0.3849736452102661, 0.6104356646537781, 0.5270267637814299, 1727989856918094675, 
-0.14478975534439087, -0.826310396194458, 0.5001909297886192, 1727989856948080147, 
0.1796194314956665, 0.3032868504524231, 0.4802327615697048, 1727989856978349031, 
-0.03246647119522095, 0.7180126309394836, 0.48074361056123033, 1727989857008184615, 
-0.060682713985443115, -0.6293321251869202, 0.4467971413306524, 1727989857040990969, 
-0.15624409914016724, 0.1534697413444519, 0.5124212628475175, 1727989857070674392, 
0.0220181941986084, 0.7625054717063904, 0.5545766886384533, 1727989857098207762, 
-0.42175430059432983, -0.300411581993103, 0.4948364455504683, 1727989857128232194, 
0.23052340745925903, 0.6324236989021301, 0.4520276522700409, 1727989857150356479, 
-0.2360161542892456, 0.44011032581329346, 0.5524518752111456, 1727989857188438719, 
-0.007328152656555176, 0.0471186637878418, 0.5420331311270166, 1727989857218294728, 
-0.025317609310150146, -0.07694822549819946, 0.5233314180860852, 1727989857248374869, 
0.15653860569000244, 0.21896523237228394, 0.47286187676886743, 1727989857280278075, 
-0.3373267650604248, 0.15089046955108643, 0.48207523748208014, 1727989857310920973, 
-0.08720612525939941, -0.13667553663253784, 0.5694225104962828, 1727989857337457452, 
-0.03818410634994507, 0.6824510097503662, 0.47888518010695785, 1727989857368408579, 
-0.16118651628494263, -0.3586385250091553, 0.44231947622300266, 1727989857390406854, 
-0.07527512311935425, -0.4219745993614197, 0.5198548351440638, 1727989857428408643, 
0.0036597251892089844, 0.6687871813774109, 0.4978098222290373, 1727989857458519674, 
-0.24372053146362305, 0.1005449891090393, 0.518735835510117, 1727989857488674243, 
-0.42864304780960083, -0.4242040514945984, 0.4747074287149903, 1727989857520583588, 
0.13182997703552246, 0.5726401805877686, 0.4814430098331159, 1727989857551694009, 
0.264356791973114, 0.5349871516227722, 0.5315318115800636, 1727989857588530005, 
-0.31579524278640747, 0.1609203815460205, 0.4829184098073192, 1727989857618794158, 
0.2981892228126526, -0.19527333974838257, 0.4999564470801638, 1727989857648805362, 
-0.2226872444152832, 0.8843874335289001, 0.46576778451270645, 1727989857680659179, 
0.3118312358856201, 0.6707823872566223, 0.4834520795943361, 1727989857711829037, 
-0.33674466609954834, -0.5441040992736816, 0.599556604471058, 1727989857738923445, 
0.5080467462539673, 0.12812292575836182, 0.544385969267463, 1727989857767730525, 
-0.11077159643173218, 1.0047800540924072, 0.4853114396618741, 1727989857798643749, 
-0.045916974544525146, -0.2926449775695801, 0.4858852434911016, 1727989857827704286, 
0.11153769493103027, -0.35963326692581177, 0.485493830988934, 1727989857857720912, 
0.1931614875793457, 0.6590949892997742, 0.5080077507605014, 1727989857888742064, 
-0.11965495347976685, 0.06301259994506836, 0.4785052454967662, 1727989857920310188, 
0.14078736305236816, -0.38250935077667236, 0.4709769726682743, 1727989857952169052, 
0.3479333519935608, 0.4032077193260193, 0.5567503236865128, 1727989857978915219, 
-0.04964357614517212, -0.38382744789123535, 0.44931793988603874, 1727989858000927483, 
0.11854958534240723, 0.17119091749191284, 0.5078791016529837, 1727989858032316289, 
0.09615379571914673, 0.12030589580535889, 0.5826807095552828, 1727989858068854410, 
0.21744799613952637, 0.29690641164779663, 0.5065465335281127, 1727989858098939194, 
0.11615800857543945, -0.14920753240585327, 0.4994108563551446, 1727989858128906957, 
0.2525244951248169, 0.18390417098999023, 0.4657137417993869, 1727989858160244299, 
-0.2745329737663269, 0.39089369773864746, 0.4616154090395189, 1727989858192929963, 
-0.03671002388000488, 0.05306023359298706, 0.5754880919394025, 1727989858228933823, 
-0.2339550256729126, -0.16075658798217773, 0.4949992487699878, 1727989858258978523, 
0.049115121364593506, 0.08452713489532471, 0.5006126159053144, 1727989858288994215, 
0.05812239646911621, 0.5025744438171387, 0.474060871231495, 1727989858320769189, 
-0.08090561628341675, -0.16162914037704468, 0.47526149313097477, 1727989858352386670, 
0.2589969038963318, -0.14144891500473022, 0.5690938364439848, 1727989858379148253, 
0.3242477774620056, 0.6793674826622009, 0.47766326185868896, 1727989858409095901, 
-0.13201212882995605, -0.2711855173110962, 0.45661896052872425, 1727989858439132389, 
-0.3651909828186035, -0.2364303469657898, 0.47766088180057054, 1727989858469193820, 
0.14079922437667847, 1.0265822410583496, 0.5040871593017257, 1727989858499189567, 
-0.02646702527999878, -0.5390308499336243, 0.528646129730277, 1727989858529356317, 
-0.17748570442199707, -0.5320674777030945, 0.4876705171706619, 1727989858560299143, 
0.16145318746566772, 0.2762768864631653, 0.4636525489065567, 1727989858592290461, 
0.011621236801147461, 0.5211412906646729, 0.5737183279920515, 1727989858619528794, 
-0.2861431837081909, -0.515330970287323, 0.5112032867244944, 1727989858649318305, 
-0.0015805959701538086, 0.22996079921722412, 0.4944949061802574, 1727989858679407489, 
-0.2692517042160034, 0.6783234477043152, 0.47642673617136555, 1727989858709413382, 
-0.24468708038330078, -0.29495769739151, 0.4859402943851204, 1727989858739340129, 
0.028073430061340332, -0.15946948528289795, 0.5266462472452208, 1727989858769406902, 
0.000862419605255127, 0.9453521370887756, 0.5189295826906931, 1727989858800464077, 
0.18371528387069702, 0.04365617036819458, 0.47247224189911174, 1727989858832606201, 
-0.45286262035369873, -0.5500375032424927, 0.5311763963792997, 1727989858859689902, 
0.05651050806045532, 0.5046240091323853, 0.49880112907414936, 1727989858889421927, 
-0.08455651998519897, 0.19110774993896484, 0.5290545592925342, 1727989858918587185, 
0.009830653667449951, -0.1148991584777832, 0.49544658694764065, 1727989858948536573, 
-0.05595487356185913, 0.06794071197509766, 0.5050175749153827, 1727989858978498184, 
0.08058547973632812, 0.1439664363861084, 0.48303532490778217, 1727989859009680725, 
-0.383935809135437, 0.21196192502975464, 0.4711763759242462, 1727989859040202791, 
0.21683049201965332, 0.1826857328414917, 0.48020218360055755, 1727989859072213494, 
-0.2752246856689453, 0.13832306861877441, 0.5921333691942142, 1727989859098719778, 
0.06705045700073242, -0.1462763547897339, 0.504215471084249, 1727989859129609555, 
0.16501474380493164, 0.24202030897140503, 0.5146088229963315, 1727989859159694092, 
-0.10470777750015259, 0.45368897914886475, 0.47900012679383214, 1727989859189679842, 
-0.1531878113746643, -0.47372686862945557, 0.5124556320199518, 1727989859218701241, 
0.11385953426361084, 0.15343064069747925, 0.5017299811529228, 1727989859248718994, 
-0.35206496715545654, 0.7643890976905823, 0.4574542325207273, 1727989859279852615, 
0.32047778367996216, -0.4723958969116211, 0.47865354741749816, 1727989859312462159, 
-0.2075520157814026, -0.09534639120101929, 0.5578764089683719, 1727989859339738457, 
0.2969309687614441, 0.7233860492706299, 0.49603498438578175, 1727989859370019452, 
-0.1378207802772522, -0.3408467769622803, 0.5044095527131298, 1727989859399996162, 
-0.1524496078491211, -0.19067823886871338, 0.47946029395634193, 1727989859429880979, 
0.026364803314208984, 0.20705735683441162, 0.49739167969917564, 1727989859460013221, 
-0.3326411247253418, 0.4225778579711914, 0.5101409295880608, 1727989859489900813, 
-0.0079498291015625, -0.42342281341552734, 0.492263858905962, 1727989859520234943, 
0.3609772324562073, 0.3049030303955078, 0.4727294039066301, 1727989859552262793, 
-0.1619592308998108, 0.6096361875534058, 0.5347904852970081, 1727989859580228304, 
-0.4075908064842224, -0.4479774832725525, 0.5208632935726132, 1727989859610121837, 
-0.18767249584197998, -0.1679072380065918, 0.53814022311568, 1727989859639990406, 
-0.3516349792480469, 0.9254411458969116, 0.5132566897938866, 1727989859670165873, 
0.5416383147239685, -0.149297297000885, 0.5176807533520346, 1727989859699996341, 
-0.24046951532363892, -0.4294847249984741, 0.49083940182837854, 1727989859730064130, 
-0.08286958932876587, 0.6985999345779419, 0.4764075167626925, 1727989859760997965, 
-0.172143816947937, -0.023255348205566406, 0.5066759344570266, 1727989859791714810, 
-0.0910336971282959, -0.32588648796081543, 0.5382649165015573, 1727989859820145955, 
-0.2851387858390808, 0.3860037326812744, 0.4977217128648078, 1727989859850775981, 
-0.19665038585662842, 0.1334066390991211, 0.5068967129857727, 1727989859880838271, 
-0.12214827537536621, -0.04828387498855591, 0.4970668681294294, 1727989859910994475, 
0.12002992630004883, 0.4222443699836731, 0.5128070785707833, 1727989859940827242, 
0.004887223243713379, -0.0414084792137146, 0.5099172333135382, 1727989859970813336, 
-0.11630654335021973, -0.03430074453353882, 0.4838842520273913, 1727989860000857887, 
-0.19025349617004395, 0.16037660837173462, 0.46033082784273605, 1727989860032199956, 
-0.4563785791397095, 0.26033979654312134, 0.48822030883547796, 1727989860062685910, 
0.3017285466194153, -0.2590521574020386, 0.5637274622125552, 1727989860090942453, 
0.07814347743988037, 0.10397642850875854, 0.5406313724633678, 1727989860120996976, 
-0.27650928497314453, -0.2950153946876526, 0.47436623250975735, 1727989860142763261, 
-0.287006676197052, -0.40231138467788696, 0.4888811225085007, 1727989860181481487, 
-0.08222603797912598, -0.30390411615371704, 0.4759634562113998, 1727989860210942646, 
-0.028345823287963867, 0.9476838111877441, 0.47329442631005597, 1727989860241216118, 
-0.38110703229904175, 0.33107519149780273, 0.4796915779440269, 1727989860272264329, 
0.1888793706893921, -0.3918054699897766, 0.4974810316870651, 1727989860302546517, 
-0.13910633325576782, -0.6073315739631653, 0.5184417145780714, 1727989860341060408, 
0.40882015228271484, 0.5465830564498901, 0.5178712730943504, 1727989860370869401, 
-0.18202877044677734, 0.23238986730575562, 0.5083770437742101, 1727989860401001159, 
0.2622281312942505, -0.4726008176803589, 0.464623659979835, 1727989860433312516, 
0.05777615308761597, 0.36294353008270264, 0.5010525911718146, 1727989860462884313, 
0.0490075945854187, 0.43526238203048706, 0.5412338616091175, 1727989860490956176, 
-0.27677255868911743, -0.514188289642334, 0.5160993495739583, 1727989860520864892, 
0.09744936227798462, 0.3688136339187622, 0.5139639748201927, 1727989860550858819, 
0.2062487006187439, 0.48705554008483887, 0.5267742376836663, 1727989860580888956, 
-0.23884880542755127, -0.40419840812683105, 0.4964073006738132, 1727989860610904831, 
0.23754829168319702, -0.06627196073532104, 0.5037070704949925, 1727989860640938050, 
0.3155452609062195, 0.331276535987854, 0.5036459981003634, 1727989860672343928, 
-0.23659318685531616, 0.09547841548919678, 0.49139794200315173, 1727989860703442077, 
0.2484392523765564, -0.02587282657623291, 0.537528980331874, 1727989860741041730, 
-0.23293626308441162, 0.0756346583366394, 0.4711818468987423, 1727989860770912898, 
0.04487574100494385, 0.23089313507080078, 0.48639480975871435, 1727989860801018524, 
-0.13277173042297363, -0.17537987232208252, 0.4902705857618503, 1727989860832262884, 
-0.18911093473434448, 0.46269023418426514, 0.4577718818459258, 1727989860864085706, 
0.07311797142028809, 0.24104082584381104, 0.5841487590559474, 1727989860891037274, 
-0.17928755283355713, -0.2960659861564636, 0.5141266088373238, 1727989860920998077, 
0.38893306255340576, 0.5959183573722839, 0.4321002338860552, 1727989860944405397, 
-0.19504249095916748, 0.5740440487861633, 0.5609473265435653, 1727989860981070361, 
-0.4531852602958679, -0.29946547746658325, 0.5004572147594729, 1727989861011048580, 
0.16214877367019653, -0.07367146015167236, 0.48005098528767765, 1727989861041519939, 
-0.024257659912109375, 0.461270272731781, 0.47780391457613125, 1727989861073063736, 
-0.32164376974105835, 0.04829221963882446, 0.477407996499725, 1727989861104117338, 
-0.5813584923744202, -0.654086172580719, 0.5443565359671455, 1727989861131401299, 
0.16526371240615845, -0.09557551145553589, 0.5039435671610178, 1727989861161273504, 
-0.32705044746398926, 0.10696959495544434, 0.4383366331913038, 1727989861183964439, 
-0.4373871088027954, -0.696285605430603, 0.5446363753265574, 1727989861221437840, 
0.2159062623977661, 0.04120492935180664, 0.5065896779594644, 1727989861251157653, 
-0.005575835704803467, 1.1216639280319214, 0.49367382458501735, 1727989861281202952, 
-0.1630704402923584, -0.5406420826911926, 0.47117248163619213, 1727989861312255153, 
0.11750614643096924, -0.30222463607788086, 0.46018290764397374, 1727989861344431325, 
0.13194042444229126, 0.8709827065467834, 0.5863909079636281, 1727989861371259987, 
-0.334514856338501, -0.25295424461364746, 0.5161145404604668, 1727989861401228255, 
-0.028422534465789795, 0.6379116177558899, 0.4500148453799245, 1727989861424549560, 
0.10593944787979126, 0.40830373764038086, 0.5744284605667415, 1727989861461240162, 
0.08698177337646484, 0.2251967191696167, 0.5186088978565714, 1727989861491275791, 
0.0449519157409668, -0.11332553625106812, 0.5197160132539722, 1727989861521226281, 
-0.052983641624450684, -0.023149847984313965, 0.5157473848463079, 1727989861552531710, 
-0.10880744457244873, 0.31390446424484253, 0.47172926779128993, 1727989861584941318, 
-0.3261301517486572, -0.04494267702102661, 0.5161286237433859, 1727989861611314833, 
0.34786999225616455, -0.10097849369049072, 0.47071352135651934, 1727989861641293293, 
-0.12395930290222168, 0.4919276833534241, 0.5127539667041929, 1727989861671339750, 
-0.21084505319595337, -0.35481196641921997, 0.5262680227811886, 1727989861701390735, 
-0.09636175632476807, 0.19126594066619873, 0.5019042614803041, 1727989861731358732, 
0.17718714475631714, 0.4232269525527954, 0.4828226425719185, 1727989861761424427, 
-0.515680193901062, -0.5243871808052063, 0.4759794107871823, 1727989861792304017, 
-0.05555880069732666, 0.22244638204574585, 0.46728779909840845, 1727989861824282820, 
-0.08530151844024658, 0.6515490412712097, 0.545736444200807, 1727989861852218302, 
-0.3724632263183594, -0.5442054867744446, 0.4976726271825722, 1727989861881946745, 
-0.030880272388458252, -0.09598320722579956, 0.48082009534932874, 1727989861911547499, 
0.07143056392669678, 0.6226475834846497, 0.4910228665410978, 1727989861941614015, 
0.13356071710586548, 0.8157138228416443, 0.5166187858499323, 1727989861971799294, 
-0.22432327270507812, -0.4746556282043457, 0.5370137942950468, 1727989862000733047, 
0.37841683626174927, -0.14510345458984375, 0.4766595651480352, 1727989862033066517, 
-0.29050809144973755, 0.7780901789665222, 0.45908252009949274, 1727989862064658425, 
-0.3393101096153259, -0.5282697677612305, 0.5718383083591487, 1727989862090662522, 
0.06567990779876709, 0.25564682483673096, 0.5110556905982996, 1727989862120615374, 
0.44813019037246704, 0.803769052028656, 0.5249985950653335, 1727989862150674499, 
-0.2343602180480957, -0.43325090408325195, 0.49362533515809387, 1727989862180656830, 
0.09929579496383667, -0.37503957748413086, 0.46727134759934913, 1727989862211689245, 
0.23494184017181396, 0.5237394571304321, 0.5365956124017225, 1727989862240716004, 
-0.1048581600189209, 0.11553007364273071, 0.48400199845026054, 1727989862272514435, 
-0.25584572553634644, -0.37105464935302734, 0.49011046020046584, 1727989862304295855, 
0.08068597316741943, 0.2616979479789734, 0.5678182809240511, 1727989862331851343, 
-0.3048684597015381, 0.18590790033340454, 0.49923442497837767, 1727989862361818153, 
0.10343366861343384, -0.10728448629379272, 0.516927287087014, 1727989862391844777, 
0.3603323698043823, 0.05538928508758545, 0.5123812265252449, 1727989862421904827, 
-0.747082531452179, 0.251888632774353, 0.49691213035807136, 1727989862451904302, 
0.3129757046699524, -0.02723926305770874, 0.5209572856660525, 1727989862481924584, 
-0.1816832423210144, -0.11232244968414307, 0.4940044618625868, 1727989862512448417, 
0.30664461851119995, 0.171552836894989, 0.48284850585602673, 1727989862543963724, 
-0.1570839285850525, -0.19551992416381836, 0.5604688296683368, 1727989862572083882, 
-0.18226438760757446, 0.2515994906425476, 0.49017161810583265, 1727989862602074306, 
0.053218185901641846, 0.23202037811279297, 0.488254649808374, 1727989862641981681, 
-0.12100440263748169, 0.11566019058227539, 0.4606206905041884, 1727989862673135167, 
0.022341907024383545, -0.2087470293045044, 0.4601561677546238, 1727989862704500432, 
0.13729757070541382, 0.2883090376853943, 0.54699054594268, 1727989862732378613, 
0.350246787071228, 0.36723703145980835, 0.503598407772466, 1727989862762183713, 
-0.008320152759552002, 0.09031397104263306, 0.4419865567357759, 1727989862784896795, 
-0.3294221758842468, -0.6930477023124695, 0.550517063103258, 1727989862822365111, 
0.38255906105041504, 0.688558042049408, 0.5040849541222261, 1727989862852228954, 
-0.0396847128868103, 0.2500237226486206, 0.5064360331179777, 1727989862882243869, 
-0.09318536520004272, -0.5180919766426086, 0.49212235412056493, 1727989862912385106, 
0.05269813537597656, 0.3756568431854248, 0.4735290797093767, 1727989862944316298, 
-0.2677443027496338, 0.25549161434173584, 0.5431392631748531, 1727989862972359312, 
0.07347238063812256, -0.4521580934524536, 0.5039624885861994, 1727989863002292564, 
-0.34493815898895264, -0.4950190782546997, 0.501585383077572, 1727989863042413019, 
-0.004439175128936768, 0.4074888229370117, 0.5112570728817699, 1727989863072344163, 
-1.3271843194961548, 0.0977591872215271, 0.43025553133627203, 1727989863104621436, 
-1.4864048957824707, -0.5167919993400574, 0.31987069131656426, 1727989863134508959, 
-0.6000947952270508, -0.2396376132965088, 0.3068858954156415, 1727989863162329292, 
-0.8811607956886292, 0.3006112575531006, 0.228390516063193, 1727989863192582405, 
-0.2979198098182678, -0.10673302412033081, 0.16834026763438154, 1727989863222441871, 
-1.222726583480835, -0.21854925155639648, 0.08396458069944203, 1727989863252446408, 
-0.7266274094581604, -0.27643293142318726, 0.046918778434054405, 1727989863282435205, 
-0.3262133002281189, 0.24581176042556763, -0.01600640342580343, 1727989863312907673, 
0.07828867435455322, -0.12235486507415771, 0.00868875377770259, 1727989863343775801, 
-0.029797375202178955, -0.10081267356872559, -0.0002603055376154949, 1727989863375146174, 
-0.03616940975189209, 0.034190833568573, 0.001059428119243918, 1727989863402628472, 
0.02198338508605957, -0.04099494218826294, -0.0020526374528776667, 1727989863442584097, 
0.09169501066207886, -0.008838355541229248, 0.0009674527374707055, 1727989863472680259, 
-0.02668219804763794, -0.007140636444091797, 0.002542178427487049, 1727989863505077123, 
-0.025679469108581543, -0.06449425220489502, -0.0020389113921420615, 1727989863535223953, 
-0.017864525318145752, -0.032023489475250244, -0.0012742774262031156, 1727989863562633547, 
-0.0567626953125, 0.022124171257019043, 0.0007914371799791798, 1727989863592682362, 
-0.054644644260406494, 0.011404573917388916, 0.0011412592933352419, 1727989863622869422, 
-0.00019538402557373047, -0.03047025203704834, -0.0011589689537838124, 1727989863652842396, 
0.8637596964836121, 0.12268239259719849, 0.004665082343262365, 1727989863682955027, 
1.3173507452011108, -0.01624828577041626, 0.1272036169824354, 1727989863712747092, 
1.2098854780197144, 0.2527095079421997, 0.18843151246933348, 1727989863744466462, 
0.8987894654273987, 0.2083013653755188, 0.2405176201137066, 1727989863775304274, 
0.018001139163970947, 0.009021282196044922, 0.3172445800456548, 1727989863802791459, 
0.48293620347976685, 0.1150052547454834, 0.3552543539243338, 1727989863832829766, 
0.7112821340560913, 0.3945907950401306, 0.3421834625179111, 1727989863855924710, 
0.6689566373825073, -0.3478536605834961, 0.5058309768618903, 1727989863882929019, 
0.3371840715408325, 0.08978170156478882, 0.5040860808459082, 1727989863912904703, 
-0.09483134746551514, 0.5773025155067444, 0.5220862285388983, 1727989863942949052, 
-0.09810519218444824, -0.07966530323028564, 0.5212804638917857, 1727989863973150522, 
-0.24471086263656616, -0.07331520318984985, 0.5389831264167515, 1727989864002951303, 
-0.19985562562942505, -0.2816671133041382, 0.5455849813466116, 1727989864033038804, 
-0.32212257385253906, 0.5633960962295532, 0.5270440480227844, 1727989864064645982, 
-0.10938030481338501, 0.4934937357902527, 0.5039416936285136, 1727989864096488373, 
-0.13927346467971802, -0.8347278237342834, 0.5606791603184128, 1727989864123135655, 
-0.04636138677597046, 0.09391683340072632, 0.45751996819766383, 1727989864153198258, 
0.4488191604614258, 0.7680343389511108, 0.4628482662744511, 1727989864183155632, 
-0.6134998798370361, -0.5916728377342224, 0.46587714271657604, 1727989864213072838, 
-0.058302879333496094, -0.009896278381347656, 0.4698494295763805, 1727989864243148443, 
0.08846849203109741, 0.6008368134498596, 0.4944253876881555, 1727989864273138583, 
-0.49804890155792236, -0.1694527268409729, 0.452934827796268, 1727989864304639106, 
0.3611283302307129, -0.17637842893600464, 0.4559903995627379, 1727989864336846475, 
-0.06406652927398682, 0.15963226556777954, 0.565050109060436, 1727989864373372641, 
0.19892501831054688, 0.623653769493103, 0.505290403837521, 1727989864403235520, 
-0.0928923487663269, -0.019838392734527588, 0.5211646116053973, 1727989864443327126, 
0.17647212743759155, -0.4722796678543091, 0.5175716055326596, 1727989864473318893, 
-0.006567955017089844, 0.7857370972633362, 0.5071765593951765, 1727989864503517797, 
-0.4448605179786682, 0.647862434387207, 0.4680096201076937, 1727989864533513992, 
0.1311069130897522, -0.07171469926834106, 0.4820449484825657, 1727989864563397849, 
-0.06025803089141846, -0.32632339000701904, 0.49573355044765316, 1727989864593554248, 
-0.6172926425933838, 0.8066225647926331, 0.4678142726448759, 1727989864624393650, 
0.012902259826660156, 0.045704185962677, 0.47830049357499643, 1727989864657005361, 
-0.5072214603424072, -0.47822797298431396, 0.5942677536891321, 1727989864683551206, 
0.13425248861312866, 0.5172543525695801, 0.5107540627455117, 1727989864713480200, 
-0.2426314353942871, 0.23822402954101562, 0.5155074125585485, 1727989864743441887, 
-0.22082746028900146, -0.27577489614486694, 0.5094943679521715, 1727989864773485627, 
-0.05660003423690796, 0.18771612644195557, 0.5165131770458202, 1727989864803482275, 
0.23037147521972656, 0.35516899824142456, 0.499757430799927, 1727989864833490028, 
-0.35068535804748535, -0.20703065395355225, 0.46262061264268234, 1727989864864461578, 
-0.2803608179092407, -0.02075052261352539, 0.47140398928960076, 1727989864896470378, 
-0.26959872245788574, 0.3111022114753723, 0.5644781613826748, 1727989864923897343, 
0.1619873046875, -0.05408668518066406, 0.5171364807983624, 1727989864953593639, 
-0.21946853399276733, -0.08160459995269775, 0.5103488251357543, 1727989864983618130, 
-0.01782667636871338, -0.23203080892562866, 0.49296493101876976, 1727989865004075192, 
-0.23135429620742798, -0.1109776496887207, 0.5259242685343696, 1727989865042717781, 
-0.20638519525527954, -0.29408007860183716, 0.5002206156895529, 1727989865072732700, 
0.058231890201568604, 0.8502751588821411, 0.43921921887214044, 1727989865104951334, 
-0.5203281044960022, -0.12415164709091187, 0.45750605621347334, 1727989865135696670, 
-0.1429828405380249, -0.7424740791320801, 0.5224055934424315, 1727989865163949817, 
0.2601260542869568, 1.1538101434707642, 0.5024240554838778, 1727989865193737672, 
-0.4666951298713684, -0.15349841117858887, 0.5353552120582551, 1727989865222798251, 
0.16011446714401245, -0.5342367887496948, 0.5168516014327049, 1727989865252809532, 
-0.1488284468650818, 0.9708823561668396, 0.48517359805639354, 1727989865283821908, 
-0.38797903060913086, -0.34614986181259155, 0.5146612620678503, 1727989865313822475, 
-0.12757325172424316, -0.400628924369812, 0.4828380714261157, 1727989865344832919, 
-0.29061388969421387, -0.09794288873672485, 0.45300255894006813, 1727989865376494961, 
0.02194446325302124, 0.5689889788627625, 0.5420752121811188, 1727989865404197953, 
-0.2028328776359558, -0.12952876091003418, 0.5278400745505897, 1727989865433917376, 
-0.10781592130661011, -0.5768819451332092, 0.53387967517562, 1727989865463946365, 
-0.016938745975494385, 0.8688414096832275, 0.5288270653589959, 1727989865493995225, 
0.12365567684173584, 0.30605173110961914, 0.4956110887390283, 1727989865524091992, 
-0.16412359476089478, -0.8400512933731079, 0.4965328483514159, 1727989865554193413, 
-0.06327950954437256, 0.526357889175415, 0.5119310940617654, 1727989865583781848, 
-0.2639208436012268, 0.3429703116416931, 0.4587227409579873, 1727989865617118638, 
-0.020446598529815674, -0.3309507369995117, 0.5556293562205417, 1727989865644527029, 
-0.43903660774230957, 0.25337672233581543, 0.49692612252920304, 1727989865674290337, 
0.3621939420700073, 0.2006407380104065, 0.4825322221657607, 1727989865704293823, 
-0.11076027154922485, -0.10873115062713623, 0.4968592320722958, 1727989865734314342, 
-0.4768736958503723, 0.21438837051391602, 0.5275177490017395, 1727989865764281518, 
-0.3186734914779663, 0.2575758099555969, 0.5277643129680912, 1727989865794199083, 
0.1877502202987671, -0.110725998878479, 0.46493167287246784, 1727989865824753671, 
-0.04185229539871216, -0.21149057149887085, 0.46380653069759353, 1727989865856538785, 
0.04004019498825073, 0.35870361328125, 0.5359374392954285, 1727989865894375008, 
0.30147218704223633, 0.4133290648460388, 0.5345875229109976, 1727989865924274791, 
-0.25583672523498535, -0.48779839277267456, 0.495073157926439, 1727989865954484502, 
-0.15501254796981812, 0.1578660011291504, 0.4838393050669342, 1727989865984597603, 
0.03620028495788574, 0.4715788960456848, 0.4805551383677027, 1727989866016537178, 
-0.38075608015060425, -0.19186639785766602, 0.5466648120686924, 1727989866044442441, 
0.5406986474990845, -0.12123197317123413, 0.49274019684789644, 1727989866074366889, 
0.04638636112213135, 0.6593350172042847, 0.5121670576267056, 1727989866104407307, 
-0.12887609004974365, -0.14561712741851807, 0.4849263796904199, 1727989866134582618, 
-0.23059475421905518, -0.32054346799850464, 0.5066739848600446, 1727989866164562420, 
0.38721269369125366, 0.7234708070755005, 0.5049193726102912, 1727989866194519874, 
-0.5723152160644531, -0.4002995491027832, 0.4861082131942448, 1727989866224850323, 
-0.17031162977218628, -0.6253920793533325, 0.4759618435741135, 1727989866257192912, 
-0.11444789171218872, 0.18571847677230835, 0.559301537739835, 1727989866284611208, 
0.1437421441078186, 0.7588125467300415, 0.533423291313605, 1727989866314590318, 
-0.13636815547943115, -0.28392720222473145, 0.5267410553951236, 1727989866344622810, 
0.041288554668426514, -0.2899996042251587, 0.525472414019132, 1727989866374850782, 
0.4265204668045044, 0.6176092028617859, 0.5330235091976487, 1727989866404928571, 
-0.4036163091659546, -0.041729867458343506, 0.521284015872243, 1727989866433812914, 
0.16559350490570068, -0.29249149560928345, 0.4911073700250622, 1727989866463893097, 
0.14918553829193115, 0.37440037727355957, 0.4872437841546448, 1727989866495726361, 
-0.22917085886001587, 0.08052802085876465, 0.5198152394757822, 1727989866524829942, 
0.11795365810394287, -0.18922489881515503, 0.501049046720379, 1727989866554938107, 
0.17898660898208618, 0.14564669132232666, 0.5062785907784502, 1727989866583766495, 
-0.32677239179611206, 0.296097993850708, 0.45467150706281206, 1727989866614981552, 
-0.061372339725494385, -0.22433018684387207, 0.5098316995575068, 1727989866644854557, 
0.31993192434310913, 0.5878161191940308, 0.5063895419713502, 1727989866675176477, 
-0.1529497504234314, 0.33097904920578003, 0.5022504911540494, 1727989866705549644, 
-0.32064610719680786, -0.7615838646888733, 0.48478624048974095, 1727989866736641626, 
0.26384931802749634, 0.4668513536453247, 0.4976166586975475, 1727989866766515210, 
-0.2355177402496338, 0.6684563755989075, 0.5590143302788196, 1727989866794174100, 
